acc_x,acc_y,acc_z,gyro_x,gyro_y,gyro_z,time
-0.2115478515625,-0.0970458984375,0.77557373046875,1.1603053435114503,1.9083969465648856,1.16793893129771,1758787806.3543315
-0.261962890625,-0.11053466796875,0.92462158203125,-16.80916030534351,92.91603053435115,2.6259541984732824,1758787806.373562
0.0484619140625,-0.11590576171875,1.0850830078125,-8.15267175572519,135.77862595419847,1.9389312977099236,1758787806.392793
0.00103759765625,0.39019775390625,0.01556396484375,-0.48854961832061067,0.11450381679389313,0.0,1758787806.4120238
0.3275146484375,0.1431884765625,-0.665771484375,-161.34351145038167,0.48091603053435117,-0.12213740458015267,1758787806.4312544
-6.103515625e-05,0.99993896484375,-1.75,-8.755725190839694,34.87786259541985,103.58015267175573,1758787806.4504852
0.01904296875,0.84002685546875,1.896240234375,79.41984732824427,-236.17557251908397,-0.48091603053435117,1758787806.469716
0.00091552734375,0.0,1.2098388671875,204.90076335877862,-169.3969465648855,-132.01526717557252,1758787806.4889467
0.00384521484375,-0.251953125,-1.55230712890625,4.038167938931298,110.54198473282443,-1.9465648854961832,1758787806.5081775
0.75384521484375,-0.0009765625,0.00018310546875,246.84732824427482,156.77862595419847,7.641221374045801,1758787806.5274084
-0.015625,0.00384521484375,-0.0009765625,10.251908396946565,-0.007633587786259542,-31.221374045801525,1758787806.5466392
0.06243896484375,0.265625,-0.78106689453125,2.381679389312977,-0.007633587786259542,-31.221374045801525,1758787806.5658698
1.68743896484375,-0.015625,0.10931396484375,-0.12213740458015267,0.8473282442748091,-0.007633587786259542,1758787806.5851007
-0.2496337890625,1.81243896484375,-0.015625,13.67175572519084,-0.12213740458015267,0.816793893129771,1758787806.6043315
0.06353759765625,0.89312744140625,-0.01556396484375,13.67175572519084,-0.12213740458015267,0.816793893129771,1758787806.623562
-6.103515625e-05,-0.2496337890625,0.06243896484375,-1.9541984732824427,13.67175572519084,-80.36641221374046,1758787806.642793
-0.0062255859375,-0.09130859375,0.955322265625,2.9083969465648853,65.04580152671755,13.221374045801527,1758787806.5711699
0.08673095703125,-0.0809326171875,1.147705078125,3.9923664122137406,70.36641221374046,9.992366412213741,1758787806.5904007
0.1741943359375,-0.09185791015625,1.1055908203125,2.5572519083969465,42.86259541984733,3.9160305343511452,1758787806.6096315
0.05010986328125,0.2691650390625,0.07818603515625,126.44274809160305,15.053435114503817,82.90839694656489,1758787806.6288621
0.53424072265625,0.03271484375,-1.7349853515625,21.595419847328245,-32.0763358778626,155.72519083969465,1758787806.648093
0.25115966796875,-1.989013671875,0.120361328125,79.61068702290076,101.87022900763358,35.3587786259542,1758787806.6673238
0.5150146484375,0.1727294921875,-0.298583984375,146.93129770992365,138.89312977099237,201.3206106870229,1758787806.6865544
0.009521484375,0.0904541015625,-0.11651611328125,134.34351145038167,-2.351145038167939,24.48854961832061,1758787806.7057853
-0.10479736328125,0.09515380859375,-0.06121826171875,128.70992366412213,-5.763358778625954,16.65648854961832,1758787806.725016
-0.2105712890625,0.0821533203125,-0.05157470703125,129.13740458015266,-9.053435114503817,21.541984732824428,1758787806.7442467
-0.20556640625,0.25103759765625,-1.814208984375,58.61832061068702,44.458015267175576,-0.12213740458015267,1758787806.7634776
-6.103515625e-05,-1.998291015625,1.50103759765625,-0.1450381679389313,52.7557251908397,71.32824427480917,1758787806.7827084
1.9423828125,-0.00018310546875,0.00164794921875,0.0,-15.633587786259541,35.16793893129771,1758787806.8019392
1.23541259765625,0.02142333984375,0.00177001953125,158.6946564885496,-12.748091603053435,54.70992366412214,1758787806.8211699
0.44921875,-0.00091552734375,-6.103515625e-05,0.20610687022900764,-23.916030534351144,-0.007633587786259542,1758787806.8404007
0.45306396484375,-0.18359375,1.58416748046875,-0.022900763358778626,35.30534351145038,186.7175572519084,1758787806.8596315
0.45318603515625,1.56640625,6.103515625e-05,-0.12213740458015267,-124.86259541984732,119.40458015267176,1758787806.8788621
-0.0386962890625,0.45306396484375,-0.00390625,-52.038167938931295,-0.007633587786259542,0.21374045801526717,1758787806.898093
0.05718994140625,-0.05047607421875,1.1063232421875,-3.1526717557251906,3.717557251908397,-13.961832061068701,1758787806.9501476
0.102294921875,-0.04296875,0.97918701171875,-2.3053435114503817,-7.6106870229007635,-8.961832061068701,1758787806.9693785
0.13201904296875,-0.0457763671875,1.042236328125,-1.900763358778626,2.4122137404580153,-1.7786259541984732,1758787806.988609
0.20635986328125,-0.0018310546875,1.78118896484375,220.24427480916032,15.16030534351145,145.0916030534351,1758787807.00784
-1.10443115234375,0.26702880859375,1.5150146484375,21.671755725190838,4.091603053435114,67.67175572519083,1758787807.0270708
-1.9051513671875,-1.989013671875,0.1212158203125,142.04580152671755,-222.5267175572519,-5.694656488549619,1758787807.0463014
1.01495361328125,0.17327880859375,0.0155029296875,208.00763358778627,103.70229007633588,-166.0,1758787807.0655322
0.0118408203125,-1.18218994140625,-0.9853515625,211.10687022900763,-122.58015267175573,42.282442748091604,1758787807.084763
-0.15850830078125,0.3388671875,-0.29620361328125,220.81679389312978,32.97709923664122,-147.89312977099237,1758787807.1039937
-0.99609375,0.39105224609375,0.269775390625,40.97709923664122,-19.954198473282442,39.20610687022901,1758787807.1232245
1.86004638671875,1.7655029296875,0.25726318359375,22.0381679389313,-195.793893129771,72.30534351145039,1758787807.1424553
0.93798828125,-0.92205810546875,-0.4959716796875,-203.24427480916032,72.29770992366412,207.13740458015266,1758787807.1616862
-1.327880859375,-0.765869140625,-0.6055908203125,-74.2442748091603,58.656488549618324,23.458015267175572,1758787807.1809168
0.84423828125,-0.98455810546875,1.31634521484375,-212.98473282442748,220.9236641221374,103.59541984732824,1758787807.2001476
-1.62408447265625,0.0213623046875,-1.18609619140625,-128.0,-205.13740458015266,-247.68702290076337,1758787807.2193785
0.32012939453125,-0.16107177734375,0.3046875,-173.83969465648855,1.9236641221374047,31.595419847328245,1758787807.238609
-1.18682861328125,-1.0302734375,-0.65582275390625,190.03053435114504,39.32824427480916,-20.00763358778626,1758787807.25784
0.1326904296875,-0.0283203125,1.07391357421875,-2.6412213740458017,19.595419847328245,12.709923664122137,1758787807.0664668
0.15997314453125,-0.0693359375,1.08740234375,-5.114503816793893,25.96946564885496,9.114503816793894,1758787807.0856977
0.2442626953125,-0.0654296875,1.03607177734375,-3.450381679389313,34.274809160305345,3.9770992366412212,1758787807.1049285
0.30010986328125,-1.55987548828125,-1.5,157.70229007633588,15.091603053435115,78.03053435114504,1758787807.124159
1.50396728515625,0.4385986328125,-1.73504638671875,21.580152671755727,-58.93893129770992,93.06870229007633,1758787807.14339
-1.2960205078125,-1.23907470703125,0.12066650390625,72.16793893129771,89.90076335877863,-29.17557251908397,1758787807.1626208
-1.485107421875,0.17242431640625,-0.53497314453125,-37.12977099236641,103.67175572519083,47.05343511450382,1758787807.1818514
0.01904296875,-1.19256591796875,-1.0986328125,17.641221374045802,-154.12213740458014,35.14503816793893,1758787807.2010822
-0.17523193359375,0.1279296875,-1.98370361328125,126.72519083969466,26.6793893129771,-148.93893129770993,1758787807.220313
-1.0830078125,0.34417724609375,0.51751708984375,34.778625954198475,-22.083969465648856,13.435114503816793,1758787807.2395437
1.78192138671875,-0.73699951171875,0.209228515625,93.93129770992367,-227.8320610687023,56.66412213740458,1758787807.2587745
-0.00390625,-0.19049072265625,0.00775146484375,-124.86259541984732,-31.27480916030534,216.91603053435114,1758787807.2780054
0.421875,-0.00390625,0.01654052734375,0.8244274809160306,-124.86259541984732,125.06106870229007,1758787807.2972362
1.75042724609375,0.265625,0.76861572265625,2.6793893129770994,-124.85496183206106,31.259541984732824,1758787807.3164668
1.75,0.421875,-0.00390625,-162.93893129770993,0.8091603053435115,-124.87022900763358,1758787807.3356977
1.99993896484375,1.7325439453125,0.4375,-1.465648854961832,0.11450381679389313,0.8854961832061069,1758787807.3549285
0.05194091796875,1.4910888671875,0.48443603515625,168.3053435114504,54.961832061068705,88.18320610687023,1758787807.374159
0.37689208984375,-1.279296875,0.5955810546875,131.17557251908397,47.13740458015267,178.0763358778626,1758787807.39339
0.23095703125,-0.06243896484375,1.017578125,-4.229007633587786,37.31297709923664,2.9083969465648853,1758787807.2052977
0.29217529296875,-0.0311279296875,1.123046875,-3.9083969465648853,31.84732824427481,3.7404580152671754,1758787807.2245286
0.2735595703125,-0.009521484375,1.14202880859375,-1.7251908396946565,26.625954198473284,9.648854961832061,1758787807.2437592
0.33135986328125,-0.95648193359375,-1.0625,-123.70229007633588,15.099236641221374,56.213740458015266,1758787807.26299
-1.35052490234375,-1.26458740234375,1.264892578125,21.541984732824428,-90.36641221374046,86.35114503816794,1758787807.2822208
-1.03045654296875,0.51092529296875,0.12078857421875,51.47328244274809,-219.35114503816794,-173.793893129771,1758787807.3014514
-1.485107421875,0.17218017578125,-0.77435302734375,22.47328244274809,138.84732824427482,140.81679389312978,1758787807.3206823
0.009521484375,0.24273681640625,-0.05035400390625,148.3587786259542,-0.6641221374045801,21.50381679389313,1758787807.3399131
0.1119384765625,0.32611083984375,-0.0804443359375,136.18320610687022,-2.1603053435114505,8.34351145038168,1758787807.3591437
0.01116943359375,0.34649658203125,-0.03497314453125,128.22137404580153,-2.8473282442748094,6.374045801526718,1758787807.3783746
-0.066650390625,0.34698486328125,-0.9527587890625,-183.6946564885496,-217.50381679389312,15.083969465648854,1758787807.3976054
0.38531494140625,-1.95404052734375,-1.53021240234375,-60.67175572519084,21.53435114503817,-102.58015267175573,1758787807.4168363
-0.1826171875,-1.452392578125,-1.23907470703125,15.068702290076336,46.18320610687023,240.86259541984734,1758787807.4360669
-1.63958740234375,1.764892578125,0.17218017578125,-105.8473282442748,-53.86259541984733,103.66412213740458,1758787807.4552977
0.20452880859375,0.0238037109375,-1.19476318359375,-150.35114503816794,72.3587786259542,-91.66412213740458,1758787807.4745286
0.27325439453125,-0.1778564453125,0.0712890625,-234.4198473282443,-217.33587786259542,25.0381679389313,1758787807.4937592
-1.19744873046875,-1.24609375,-1.10894775390625,-60.38931297709924,34.29770992366412,-22.17557251908397,1758787807.51299
0.0859375,0.0101318359375,0.95867919921875,-12.145038167938932,-30.30534351145038,-4.7251908396946565,1758787807.5991375
0.01123046875,0.0120849609375,0.97039794921875,-10.717557251908397,-18.519083969465647,-2.4656488549618323,1758787807.6183681
0.01702880859375,0.04248046875,1.053466796875,-11.717557251908397,-20.65648854961832,-3.9770992366412212,1758787807.637599
0.53448486328125,1.22003173828125,1.703125,-186.1145038167939,16.862595419847327,-246.24427480916032,1758787807.6568298
-0.55731201171875,0.410888671875,-1.734375,22.900763358778626,-199.0763358778626,136.32824427480915,1758787807.6760604
0.64398193359375,0.7620849609375,0.13714599609375,127.94656488549619,-91.19083969465649,84.67175572519083,1758787807.6952913
-1.9842529296875,0.1845703125,0.15985107421875,44.61068702290076,104.02290076335878,-5.595419847328245,1758787807.7145221
0.0166015625,-0.85589599609375,-0.220703125,-103.5114503816794,-142.5648854961832,182.12977099236642,1758787807.7337527
0.07049560546875,-0.25189208984375,-1.88995361328125,133.793893129771,122.94656488549619,-100.04580152671755,1758787807.7529836
0.57421875,0.25054931640625,1.123291015625,200.6946564885496,13.82442748091603,44.587786259541986,1758787807.7722144
-0.030517578125,0.82720947265625,1.06292724609375,43.534351145038165,-43.213740458015266,-154.38167938931298,1758787807.7914453
0.53118896484375,1.07806396484375,0.92578125,-105.57251908396947,27.244274809160306,-0.015267175572519083,1758787807.8106759
0.42193603515625,-0.9844970703125,-1.74627685546875,-138.793893129771,-117.38167938931298,-144.64885496183206,1758787807.8299067
-1.3436279296875,-0.6405029296875,0.0975341796875,166.06106870229007,242.22137404580153,35.12977099236641,1758787807.8491375
-0.7763671875,-0.0023193359375,-6.103515625e-05,31.259541984732824,70.4885496183206,-1.297709923664122,1758787807.8683681
-1.60943603515625,0.06439208984375,0.283203125,250.12977099236642,8.091603053435115,0.0,1758787807.887599
-0.1258544921875,0.029052734375,0.97802734375,-1.549618320610687,-10.458015267175572,7.541984732824427,1758787808.0504692
-0.11114501953125,-0.00653076171875,0.96832275390625,-4.3893129770992365,-1.0381679389312977,8.755725190839694,1758787808.0696998
-0.20330810546875,-0.0311279296875,1.08270263671875,-1.4198473282442747,-8.83206106870229,-1.2900763358778626,1758787808.0889306
0.78448486328125,-1.9053955078125,-1.12493896484375,-229.1908396946565,-163.73282442748092,-210.3053435114504,1758787808.1081614
0.31658935546875,0.1121826171875,-1.5859375,-168.29770992366412,124.92366412213741,143.7709923664122,1758787808.127392
-0.38861083984375,-0.34429931640625,-1.39239501953125,-182.4198473282443,-168.9083969465649,236.6412213740458,1758787808.146623
-1.6036376953125,-1.60858154296875,0.39251708984375,10.877862595419847,138.8854961832061,54.94656488549618,1758787808.1658537
0.01666259765625,-0.13336181640625,0.08526611328125,122.04580152671755,-0.6946564885496184,-28.709923664122137,1758787808.1850843
0.00958251953125,-0.2635498046875,0.11376953125,123.36641221374046,-0.35877862595419846,-28.19083969465649,1758787808.2043152
0.09100341796875,-0.20452880859375,0.00823974609375,114.06870229007633,-1.0534351145038168,34.42748091603053,1758787808.223546
0.16741943359375,1.75103759765625,-1.531982421875,-107.48091603053435,13.67175572519084,229.25190839694656,1758787808.2427766
0.00689697265625,-6.103515625e-05,-0.9996337890625,211.70229007633588,-44.94656488549618,14.648854961832061,1758787808.2620075
0.0,0.0068359375,-6.103515625e-05,-62.48091603053435,219.01526717557252,162.19847328244273,1758787808.2812383
-0.18701171875,0.00958251953125,0.50189208984375,65.22137404580153,62.76335877862596,62.16030534351145,1758787808.3004692
0.5020751953125,0.493408203125,0.502197265625,62.908396946564885,62.6793893129771,60.908396946564885,1758787808.3196998
0.50146484375,0.49444580078125,0.80010986328125,-237.83969465648855,99.67175572519083,110.41984732824427,1758787808.3389306
-1.69122314453125,-1.05718994140625,0.244140625,-31.16030534351145,-47.091603053435115,-248.05343511450383,1758787808.3581614
-1.8074951171875,1.609375,-0.3431396484375,200.9618320610687,242.87022900763358,207.9770992366412,1758787808.377392
-1.681640625,-1.53070068359375,0.85247802734375,204.34351145038167,177.25190839694656,135.45038167938932,1758787808.396623
-0.09478759765625,-0.02587890625,1.00091552734375,-6.66412213740458,-19.923664122137403,6.778625954198473,1758787808.4312928
-0.10760498046875,0.00775146484375,0.91375732421875,-3.4122137404580153,-17.076335877862597,4.0458015267175576,1758787808.4505236
-0.15582275390625,-0.02703857421875,0.96209716796875,-0.9847328244274809,-4.748091603053435,6.702290076335878,1758787808.4697545
0.98760986328125,1.22186279296875,1.8125,-20.82442748091603,173.13740458015266,212.33587786259542,1758787808.488985
1.859375,-1.8277587890625,0.34228515625,165.54961832061068,202.16030534351145,-105.52671755725191,1758787808.508216
-1.49969482421875,-0.16680908203125,1.3775634765625,211.80152671755727,230.59541984732823,15.679389312977099,1758787808.5274467
1.59210205078125,1.3218994140625,1.6114501953125,-94.90076335877863,103.61068702290076,63.02290076335878,1758787808.5466774
0.0142822265625,1.21905517578125,-0.44989013671875,49.51908396946565,-124.2442748091603,12.633587786259541,1758787808.5659082
-0.4888916015625,-1.74090576171875,-0.401123046875,157.1145038167939,11.412213740458014,137.1908396946565,1758787808.585139
-1.58856201171875,-0.60406494140625,-0.99346923828125,12.67175572519084,-74.83969465648855,216.8320610687023,1758787808.6043696
-1.526123046875,1.5062255859375,0.091796875,-234.3740458015267,197.65648854961833,54.70992366412214,1758787808.6236005
0.10546875,0.0283203125,-0.000244140625,-124.86259541984732,-156.29007633587787,-7.809160305343512,1758787808.6428313
0.45306396484375,0.109375,0.025390625,-0.030534351145038167,0.21374045801526717,-125.01526717557252,1758787808.6620622
-1.37493896484375,0.2806396484375,0.91461181640625,2.0839694656488548,-124.85496183206106,-156.29007633587787,1758787808.6812928
-0.06243896484375,0.43743896484375,0.10546875,3.053435114503817,-146.99236641221373,125.26717557251908,1758787808.7005236
-0.99957275390625,0.18756103515625,0.4219970703125,14.16793893129771,3.5419847328244276,0.0,1758787808.7197545
0.16131591796875,0.2691650390625,0.43756103515625,-134.59541984732823,56.93893129770992,240.61068702290078,1758787808.738985
0.42401123046875,-1.482421875,0.4239501953125,181.98473282442748,58.87786259541985,-60.33587786259542,1758787808.758216
-0.22296142578125,0.03570556640625,0.96038818359375,4.022900763358779,-6.015267175572519,0.17557251908396945,1758787808.955572
-0.26641845703125,-0.02154541015625,0.98089599609375,2.5419847328244276,-5.122137404580153,1.7633587786259541,1758787808.9748027
-0.26806640625,-0.03271484375,0.9736328125,2.6030534351145036,-9.351145038167939,-2.6106870229007635,1758787808.9940336
1.22198486328125,1.81610107421875,1.5,-52.23664122137404,170.73282442748092,247.5267175572519,1758787809.0132642
0.044921875,1.51617431640625,0.09161376953125,164.54198473282443,246.65648854961833,-94.65648854961832,1758787809.032495
-1.78082275390625,0.08233642578125,1.3641357421875,249.3206106870229,26.38167938931298,-179.7175572519084,1758787809.0517259
1.59161376953125,1.314697265625,1.98919677734375,-77.92366412213741,103.62595419847328,137.3969465648855,1758787809.0709565
0.0166015625,1.0904541015625,0.98663330078125,-243.61068702290078,126.04580152671755,17.80916030534351,1758787809.0901873
-0.5323486328125,0.34796142578125,1.255126953125,157.31297709923663,15.412213740458014,137.67175572519085,1758787809.1094182
0.78839111328125,0.45843505859375,-1.49212646484375,17.946564885496183,-65.21374045801527,16.64885496183206,1758787809.1286488
0.395751953125,-1.99212646484375,0.12408447265625,-171.83969465648855,-0.6946564885496184,54.70992366412214,1758787809.1478796
0.40234375,0.02685546875,-0.000244140625,0.20610687022900764,-218.87022900763358,-7.809160305343512,1758787809.1671104
0.43743896484375,1.1171875,0.02734375,-0.061068702290076333,0.20610687022900764,-155.99236641221373,1758787809.1863413
-0.06243896484375,0.28118896484375,1.29156494140625,3.267175572519084,0.20610687022900764,-156.33587786259542,1758787809.205572
-0.06243896484375,0.43743896484375,0.10546875,3.1755725190839694,-0.030534351145038167,125.2824427480916,1758787809.2248027
-1.24957275390625,-0.06243896484375,0.45306396484375,14.16793893129771,3.4198473282442747,-0.030534351145038167,1758787809.2440336
-1.34271240234375,-1.30377197265625,0.42193603515625,13.19083969465649,2.931297709923664,-0.030534351145038167,1758787809.2632642
0.00164794921875,-1.49957275390625,-0.06243896484375,58.61832061068702,13.679389312977099,3.4198473282442747,1758787809.282495
-0.32012939453125,0.0130615234375,0.99957275390625,-5.229007633587786,3.7557251908396947,1.4351145038167938,1758787809.7296145
-0.32330322265625,-0.0096435546875,1.001953125,-10.694656488549619,3.099236641221374,2.0763358778625953,1758787809.748845
-0.3192138671875,-0.0596923828125,0.9549560546875,-10.618320610687023,0.6870229007633588,-1.4961832061068703,1758787809.768076
-0.62396240234375,-0.24310302734375,0.4373779296875,-0.48854961832061067,-0.007633587786259542,0.8473282442748091,1758787809.7873068
-1.0,-0.25006103515625,1.81243896484375,82.07633587786259,-0.4732824427480916,-0.6183206106870229,1758787809.8065374
0.00750732421875,-1.0,-6.103515625e-05,226.6793893129771,33.221374045801525,73.9618320610687,1758787809.8257682
0.01190185546875,-0.909912109375,-6.103515625e-05,211.04580152671755,216.91603053435114,-0.08396946564885496,1758787809.844999
-6.103515625e-05,0.00726318359375,-6.103515625e-05,-0.007633587786259542,-242.32824427480915,-168.06106870229007,1758787809.8642297
-0.00018310546875,-6.103515625e-05,0.00701904296875,-74.12977099236642,-42.74809160305343,-1.9541984732824427,1758787809.8834605
-6.103515625e-05,-6.103515625e-05,0.00677490234375,-0.007633587786259542,-0.007633587786259542,226.6793893129771,1758787809.9026914
-0.015625,-6.103515625e-05,-6.103515625e-05,0.9083969465648855,-0.007633587786259542,-0.007633587786259542,1758787809.9219222
1.74993896484375,0.265625,1.95086669921875,1.786259541984733,-0.007633587786259542,-0.007633587786259542,1758787809.9411528
1.74993896484375,-0.03125,-6.103515625e-05,-0.007633587786259542,0.8778625954198473,-0.007633587786259542,1758787809.9603837
-6.103515625e-05,1.87493896484375,-0.015625,-0.007633587786259542,-0.007633587786259542,0.8473282442748091,1758787809.9796145
-0.56146240234375,-0.33245849609375,-0.015625,-0.007633587786259542,-0.007633587786259542,0.8473282442748091,1758787809.998845
-0.000244140625,-6.103515625e-05,0.06243896484375,-5.862595419847328,-0.007633587786259542,-0.007633587786259542,1758787810.018076
-0.37213134765625,-0.077880859375,0.9979248046875,14.946564885496183,-5.00763358778626,12.374045801526718,1758787809.9276533
-0.3558349609375,-0.06494140625,0.9273681640625,12.83969465648855,-6.534351145038168,3.312977099236641,1758787809.946884
-0.34820556640625,-0.02154541015625,0.90576171875,15.648854961832061,-6.1603053435114505,-0.29770992366412213,1758787809.9661148
-0.37396240234375,1.55804443359375,-6.103515625e-05,-0.007633587786259542,-0.007633587786259542,0.8473282442748091,1758787809.9853456
-6.103515625e-05,-6.103515625e-05,1.81243896484375,-1.9541984732824427,-0.007633587786259542,-0.007633587786259542,1758787810.0045762
0.00726318359375,-6.103515625e-05,-6.103515625e-05,226.6793893129771,33.221374045801525,56.49618320610687,1758787810.023807
0.01666259765625,-6.103515625e-05,-6.103515625e-05,218.86259541984734,-1.9541984732824427,-0.007633587786259542,1758787810.043038
-0.00982666015625,0.00653076171875,-6.103515625e-05,250.12977099236642,226.6793893129771,-1.9541984732824427,1758787810.0622685
-6.103515625e-05,-6.103515625e-05,0.00701904296875,-42.86259541984733,33.900763358778626,-1.9465648854961832,1758787810.0814993
-6.103515625e-05,-6.103515625e-05,0.00653076171875,-0.007633587786259542,-0.007633587786259542,234.49618320610688,1758787810.1007302
-0.015625,-0.01177978515625,-6.103515625e-05,0.8778625954198473,-125.07633587786259,-0.007633587786259542,1758787810.1199608
1.68743896484375,0.265625,-1.17315673828125,2.0839694656488548,-0.007633587786259542,-0.007633587786259542,1758787810.1391916
1.74993896484375,-0.015625,-6.103515625e-05,-0.007633587786259542,0.9389312977099237,-0.007633587786259542,1758787810.1584225
-6.103515625e-05,1.93743896484375,-1.265625,-0.022900763358778626,-0.007633587786259542,0.8473282442748091,1758787810.1776533
-0.31146240234375,0.2822265625,-0.01556396484375,-0.007633587786259542,-0.007633587786259542,0.8473282442748091,1758787810.196884
-0.1514892578125,-6.103515625e-05,1.74993896484375,209.09923664122138,-0.44274809160305345,-20.282442748091604,1758787810.2161148
0.00653076171875,-1.0,-6.103515625e-05,211.04580152671755,162.19847328244273,150.61068702290078,1758787810.2353456
0.0167236328125,0.50140380859375,0.51837158203125,62.732824427480914,64.61832061068702,62.732824427480914,1758787810.2545762
0.51861572265625,0.5015869140625,0.5150146484375,62.732824427480914,64.86259541984732,62.732824427480914,1758787810.273807
-0.30902099609375,-0.25384521484375,0.9398193359375,-0.8244274809160306,1.5267175572519085,4.450381679389313,1758787811.6945696
-0.30096435546875,-0.2821044921875,0.92254638671875,-2.33587786259542,2.114503816793893,3.7938931297709924,1758787811.7138002
-0.29705810546875,-0.2547607421875,0.93939208984375,-2.2900763358778624,1.0,2.7022900763358777,1758787811.733031
-1.41864013671875,0.6295166015625,-1.359375,-239.25190839694656,171.03053435114504,-239.0,1758787811.7522619
-1.87109375,0.25054931640625,1.34765625,165.33587786259542,-223.80152671755727,192.0,1758787811.7714925
0.14111328125,1.83697509765625,1.36700439453125,-239.48091603053436,-240.24427480916032,88.00763358778626,1758787811.7907233
0.34747314453125,1.32135009765625,-1.7982177734375,182.9618320610687,103.63358778625954,73.57251908396947,1758787811.8099542
0.01190185546875,-1.7586669921875,1.84112548828125,86.64885496183206,-249.12213740458014,18.572519083969464,1758787811.8291848
0.9163818359375,-1.8707275390625,1.739501953125,-61.465648854961835,16.3206106870229,-222.09923664122138,1758787811.8484156
1.75323486328125,0.09906005859375,0.75811767578125,18.572519083969464,111.04580152671755,-246.06106870229007,1758787811.8676465
0.473876953125,-1.741455078125,0.13037109375,7.022900763358779,-118.45801526717557,109.43511450381679,1758787811.8868773
-1.61968994140625,-1.265625,-1.78125,-1.8091603053435115,-242.32824427480915,128.9770992366412,1758787811.906108
-1.6649169921875,-0.7691650390625,0.12493896484375,138.95419847328245,201.99236641221373,1.1908396946564885,1758787811.9253387
-0.30279541015625,-0.25811767578125,0.9283447265625,-2.068702290076336,0.22137404580152673,2.8625954198473282,1758787811.9445696
-0.30780029296875,-0.26788330078125,0.937744140625,-2.1755725190839694,0.7022900763358778,2.816793893129771,1758787811.9638002
-0.30426025390625,-0.2650146484375,0.938232421875,-2.854961832061069,1.5114503816793894,2.3053435114503817,1758787811.983031
-0.29876708984375,-0.25396728515625,0.93304443359375,-3.648854961832061,2.0076335877862594,1.6259541984732824,1758787811.8252158
-0.290771484375,-0.258056640625,0.93377685546875,-2.2213740458015265,1.4809160305343512,0.549618320610687,1758787811.8444467
-0.29583740234375,-0.25958251953125,0.93841552734375,-1.7938931297709924,0.5419847328244275,0.19083969465648856,1758787811.8636773
-1.34051513671875,0.2691650390625,-0.06243896484375,73.37404580152672,170.93893129770993,-240.35114503816794,1758787811.882908
-1.87890625,-1.68695068359375,1.346923828125,165.10687022900763,-227.8854961832061,181.86259541984734,1758787811.902139
1.68798828125,-0.66326904296875,1.36712646484375,-240.12977099236642,-228.51908396946564,-89.82442748091603,1758787811.9213696
-1.403076171875,1.3204345703125,-1.82025146484375,190.04580152671755,138.8091603053435,-239.6412213740458,1758787811.9406004
0.009521484375,-0.2950439453125,-0.24761962890625,117.80152671755725,-2.5572519083969465,-0.16793893129770993,1758787811.9598312
0.00152587890625,-0.30419921875,-0.25299072265625,118.66412213740458,-3.4656488549618323,-0.48091603053435117,1758787811.9790618
0.00225830078125,-0.3076171875,-0.2523193359375,117.48091603053435,-3.7251908396946565,0.015267175572519083,1758787811.9982927
0.00048828125,-1.32489013671875,0.27288818359375,-181.73282442748092,198.45038167938932,171.0381679389313,1758787812.0175235
-1.91845703125,-1.7900390625,0.57867431640625,-81.67175572519083,165.19847328244273,-227.42748091603053,1758787812.0367544
1.5625,-0.79638671875,-0.66326904296875,171.08396946564886,-239.63358778625954,-220.21374045801528,1758787812.055985
1.79742431640625,1.34698486328125,1.3212890625,-227.18320610687022,199.81679389312978,103.63358778625954,1758787812.0752158
1.979248046875,0.028564453125,-1.7838134765625,-218.46564885496184,229.3053435114504,219.8854961832061,1758787812.0944467
0.14935302734375,0.841796875,-1.6588134765625,-93.16030534351145,-186.54198473282443,16.419847328244273,1758787812.1136773
-1.780517578125,-1.70086669921875,-1.99468994140625,-124.05343511450381,18.6793893129771,106.46564885496183,1758787812.132908
-0.30224609375,-0.0870361328125,0.9603271484375,-16.03053435114504,3.015267175572519,-5.114503816793893,1758787812.5751307
-0.30322265625,-0.08203125,0.980712890625,-15.694656488549619,2.816793893129771,-5.770992366412214,1758787812.5943615
-0.2955322265625,-0.07147216796875,0.96868896484375,-15.244274809160306,2.2519083969465647,-6.480916030534351,1758787812.6135921
-0.93426513671875,0.26922607421875,0.87506103515625,10.961832061068701,172.84732824427482,-237.05343511450383,1758787812.632823
-0.46484375,-0.45257568359375,-1.15185546875,167.2290076335878,-223.74045801526717,-71.69465648854961,1758787812.6520538
1.53173828125,0.837646484375,1.38201904296875,-237.03053435114504,-55.083969465648856,131.0,1758787812.6712844
-1.40179443359375,1.337158203125,-1.78863525390625,-66.56488549618321,33.282442748091604,-30.16793893129771,1758787812.6905153
-0.0072021484375,-0.40386962890625,-1.90789794921875,-181.40458015267177,-0.183206106870229,-31.27480916030534,1758787812.7097461
-0.00048828125,-6.103515625e-05,1.99560546875,209.7175572519084,-0.5725190839694656,248.17557251908397,1758787812.7289767
1.19671630859375,-0.84521484375,-0.4508056640625,-216.78625954198472,109.8473282442748,181.74809160305344,1758787812.7482076
1.4375,-0.60223388671875,-1.0794677734375,-44.786259541984734,-108.65648854961832,-70.61068702290076,1758787812.7674384
-0.23486328125,-1.1602783203125,-0.52862548828125,-0.007633587786259542,125.06106870229007,-232.03053435114504,1758787812.7866693
-0.13720703125,0.28076171875,-1.7254638671875,2.381679389312977,122.03053435114504,198.14503816793894,1758787812.8058999
-0.01129150390625,0.48431396484375,0.0047607421875,-244.45801526717557,186.31297709923663,160.18320610687022,1758787812.8251307
-0.07501220703125,-0.076171875,0.5501708984375,-212.0381679389313,-57.58015267175573,-23.0381679389313,1758787812.8443615
-1.70208740234375,0.8875732421875,-0.01556396484375,241.82442748091603,119.25190839694656,-0.007633587786259542,1758787812.8635921
-0.18365478515625,-0.86370849609375,0.29974365234375,-221.3969465648855,-220.31297709923663,94.36641221374046,1758787812.882823
-0.29931640625,0.0391845703125,0.95806884765625,-8.580152671755725,2.198473282442748,-5.66412213740458,1758787812.9125602
-0.29400634765625,0.03985595703125,0.9669189453125,-8.351145038167939,3.114503816793893,-7.267175572519084,1758787812.9317908
-0.29302978515625,0.052734375,0.970458984375,-8.51908396946565,2.877862595419847,-8.0,1758787812.9510217
-0.77801513671875,0.6146240234375,1.328125,104.79389312977099,173.9236641221374,-229.64885496183206,1758787812.9702525
0.017578125,0.1412353515625,0.3489990234375,169.01526717557252,-214.8091603053435,91.6030534351145,1758787812.989483
0.28179931640625,1.83795166015625,1.39166259765625,-229.0381679389313,5.4961832061068705,191.58778625954199,1758787813.008714
-0.65093994140625,1.35260009765625,-1.71148681640625,101.37404580152672,103.6412213740458,132.5114503816794,1758787813.0279448
0.01190185546875,-1.4696044921875,0.52764892578125,-1.2748091603053435,-249.08396946564886,19.572519083969464,1758787813.0471754
1.38751220703125,-1.4185791015625,-0.7760009765625,-249.0229007633588,18.015267175572518,-182.16030534351145,1758787813.0664062
0.78546142578125,0.89605712890625,-0.49151611328125,19.587786259541986,176.10687022900763,-145.66412213740458,1758787813.085637
0.3958740234375,0.50897216796875,0.14434814453125,225.27480916030535,229.45801526717557,-199.32824427480915,1758787813.1048677
-0.65740966796875,0.82830810546875,-0.9649658203125,-11.763358778625955,-185.64885496183206,-142.6946564885496,1758787813.1240985
1.23321533203125,-1.952880859375,-0.44940185546875,-209.13740458015266,-152.42748091603053,111.35114503816794,1758787813.1433294
0.76446533203125,0.843994140625,0.0350341796875,-117.2824427480916,46.900763358778626,35.14503816793893,1758787813.1625602
1.32275390625,-0.0023193359375,-1.00006103515625,-242.9236641221374,-13.15267175572519,-0.007633587786259542,1758787813.1817908
0.60150146484375,-0.34423828125,-0.00018310546875,125.05343511450381,238.48091603053436,-4.244274809160306,1758787813.2010217
-0.01568603515625,0.10150146484375,1.50921630859375,-0.022900763358778626,65.12213740458016,-73.61832061068702,1758787813.2202525
0.45306396484375,-0.701171875,0.470703125,-101.37404580152672,56.916030534351144,-115.05343511450381,1758787813.239483
0.470703125,-0.888671875,0.486328125,-140.45801526717557,62.778625954198475,-140.45801526717557,1758787813.258714
-0.26483154296875,0.109375,0.9886474609375,2.122137404580153,2.312977099236641,0.4961832061068702,1758787813.4461026
-0.26470947265625,0.1097412109375,0.98388671875,1.8702290076335877,1.9236641221374047,0.3893129770992366,1758787813.4653335
-0.26165771484375,0.10650634765625,0.97552490234375,1.6412213740458015,1.1908396946564885,0.4351145038167939,1758787813.484564
-0.54364013671875,0.6109619140625,-0.34375,229.81679389312978,174.46564885496184,-231.0,1758787813.503795
-0.0634765625,-1.24945068359375,-1.15216064453125,168.89312977099237,-221.0,13.557251908396946,1758787813.5230258
0.32867431640625,-0.41241455078125,1.3948974609375,-230.9618320610687,-11.358778625954198,121.22900763358778,1758787813.5422564
-1.152099609375,1.3505859375,-1.76617431640625,15.389312977099237,103.6412213740458,64.22900763358778,1758787813.5614872
0.0142822265625,-1.57501220703125,1.08233642578125,-122.43511450381679,-61.48854961832061,19.46564885496183,1758787813.580718
1.0777587890625,1.8157958984375,0.0989990234375,188.6946564885496,17.64885496183206,-196.66412213740458,1758787813.5999486
1.04913330078125,-1.13519287109375,-0.49163818359375,19.458015267175572,136.4732824427481,232.9618320610687,1758787813.6191795
0.4114990234375,1.50872802734375,0.14111328125,240.9083969465649,-194.87022900763358,175.87786259541986,1758787813.6384103
-0.70416259765625,0.5159912109375,-1.2305908203125,203.23664122137404,91.8473282442748,-3.9083969465648853,1758787813.6576412
0.9676513671875,-1.1246337890625,0.4725341796875,93.80916030534351,52.76335877862596,17.587786259541986,1758787813.6768718
-1.65728759765625,1.2191162109375,-1.3087158203125,119.21374045801527,125.06870229007633,103.57251908396947,1758787813.6961026
1.10736083984375,0.02618408203125,-1.5679931640625,135.9770992366412,-126.34351145038168,-61.48854961832061,1758787813.7153335
0.15557861328125,1.1009521484375,1.9124755859375,82.73282442748092,219.9618320610687,17.65648854961832,1758787813.734564
-1.56201171875,1.15948486328125,-0.52581787109375,-61.48854961832061,19.46564885496183,138.76335877862596,1758787813.753795
-0.27056884765625,0.0906982421875,0.97222900390625,3.6030534351145036,0.46564885496183206,1.213740458015267,1758787813.5654867
-0.2703857421875,0.0975341796875,0.96014404296875,3.66412213740458,0.5267175572519084,1.0458015267175573,1758787813.5847175
-0.27581787109375,0.1097412109375,0.96746826171875,4.679389312977099,0.4198473282442748,1.0916030534351144,1758787813.603948
-0.46551513671875,-0.9825439453125,-0.515625,167.29770992366412,174.6030534351145,-230.14503816793894,1758787813.623179
-0.1552734375,-1.65570068359375,-1.15185546875,169.21374045801528,-219.72519083969465,26.50381679389313,1758787813.6424098
-0.04632568359375,-0.412353515625,1.39599609375,-230.19847328244273,-23.083969465648856,156.40458015267177,1758787813.6616404
-1.15179443359375,1.3531494140625,-1.75537109375,28.33587786259542,103.6412213740458,181.51908396946564,1758787813.6808712
0.01177978515625,-1.54345703125,1.37335205078125,98.38931297709924,1.0534351145038168,19.442748091603054,1758787813.700102
1.1600341796875,-1.4937744140625,-0.7447509765625,-249.04580152671755,17.709923664122137,-192.38931297709922,1758787813.7193327
1.38995361328125,0.84918212890625,1.2584228515625,19.442748091603054,147.12213740458014,-174.12213740458014,1758787813.7385635
-0.3853759765625,0.75872802734375,0.1417236328125,-54.31297709923664,-241.80152671755727,33.229007633587784,1758787813.7577944
1.5877685546875,1.396240234375,-1.83935546875,-21.61832061068702,148.58778625954199,74.83969465648855,1758787813.7770252
1.35443115234375,-1.74993896484375,0.3212890625,-224.66412213740458,42.2442748091603,174.68702290076337,1758787813.7962558
-1.837646484375,-0.1416015625,0.56304931640625,-112.7557251908397,169.45801526717557,-218.44274809160305,1758787813.8154867
0.376953125,0.26617431640625,-1.4248046875,-0.007633587786259542,221.34351145038167,138.16030534351145,1758787813.8347175
0.73162841796875,-0.00323486328125,0.56243896484375,110.12213740458016,-0.007633587786259542,97.8473282442748,1758787813.853948
-0.35784912109375,-1.26885986328125,0.3109130859375,-92.21374045801527,182.87022900763358,-245.66412213740458,1758787813.873179
-0.2791748046875,0.105712890625,0.96942138671875,5.4961832061068705,0.5343511450381679,1.633587786259542,1758787813.6749375
-0.27587890625,0.10540771484375,0.97088623046875,6.549618320610687,0.8091603053435115,2.145038167938931,1758787813.694168
-0.277587890625,0.11090087890625,0.9637451171875,7.526717557251908,1.16793893129771,2.267175572519084,1758787813.713399
-0.41864013671875,-0.341796875,0.390625,-145.35114503816794,174.74809160305344,-229.77862595419847,1758787813.7326298
-0.12890625,-0.60882568359375,1.59844970703125,169.5114503816794,-218.10687022900763,52.396946564885496,1758787813.7518604
-1.62445068359375,0.58782958984375,1.397705078125,-229.6946564885496,-14.16793893129771,-207.0763358778626,1758787813.7710912
-1.1514892578125,1.3558349609375,-1.74127197265625,58.25954198473283,138.81679389312978,-247.21374045801528,1758787813.790322
0.01190185546875,-0.2794189453125,0.1046142578125,120.06106870229007,8.534351145038167,1.5114503816793894,1758787813.8095527
0.0177001953125,-0.27734375,0.11236572265625,120.65648854961832,10.106870229007633,1.6488549618320612,1758787813.8287835
0.01727294921875,-0.28472900390625,0.11065673828125,122.5114503816794,11.648854961832061,1.7099236641221374,1758787813.8480144
0.0228271484375,0.08740234375,0.880126953125,89.90076335877863,-202.57251908396947,-158.29007633587787,1758787813.8672452
0.78125,-0.014892578125,-1.93756103515625,128.9770992366412,-178.91603053435114,-195.86259541984734,1758787813.8864758
0.18743896484375,0.82977294921875,1.4671630859375,1.786259541984733,-187.6412213740458,240.64885496183206,1758787813.9057066
-1.96331787109375,-1.7415771484375,0.1558837890625,154.6259541984733,-98.76335877862596,-202.5801526717557,1758787813.9249375
1.5087890625,0.14251708984375,-1.4954833984375,-246.1908396946565,-147.83969465648855,126.12213740458016,1758787813.944168
0.15618896484375,1.24420166015625,-0.6334228515625,-140.04580152671755,-155.23664122137404,17.84732824427481,1758787813.963399
-0.3070068359375,0.00555419921875,0.94122314453125,18.519083969465647,14.122137404580153,14.221374045801527,1758787813.9663749
-0.31842041015625,-0.00958251953125,0.93023681640625,17.236641221374047,16.19083969465649,15.129770992366412,1758787813.9856057
-0.32037353515625,-0.03338623046875,0.91009521484375,15.870229007633588,17.99236641221374,15.290076335877863,1758787814.0048366
-0.26239013671875,-0.6053466796875,-0.40631103515625,-207.84732824427482,175.45801526717557,-230.80152671755727,1758787814.0240672
0.3974609375,-1.7493896484375,1.09881591796875,170.17557251908397,-218.27480916030535,104.54961832061069,1758787814.043298
1.51617431640625,0.83807373046875,1.4017333984375,-231.21374045801528,32.12213740458015,160.3206106870229,1758787814.0625288
-0.40130615234375,1.359375,-1.7513427734375,83.17557251908397,103.6412213740458,83.90839694656489,1758787814.0817595
0.009521484375,-1.4730224609375,-1.60809326171875,186.32824427480915,-186.55725190839695,19.564885496183205,1758787814.1009903
1.24127197265625,-0.3726806640625,-1.9791259765625,-92.70992366412214,17.80916030534351,-186.51908396946564,1758787814.1202211
1.87237548828125,-0.08831787109375,1.00830078125,19.450381679389313,154.04580152671755,-93.02290076335878,1758787814.1394517
0.4114990234375,0.50872802734375,0.1417236328125,-46.770992366412216,120.54961832061069,-0.007633587786259542,1758787814.1586826
-0.71099853515625,1.7122802734375,-1.7139892578125,-125.07633587786259,-199.3053435114504,-10.320610687022901,1758787814.1779134
-0.00274658203125,-1.02740478515625,1.64501953125,-0.015267175572519083,125.06106870229007,10.145038167938932,1758787814.1971443
-0.0289306640625,0.28118896484375,0.99859619140625,1.786259541984733,-0.007633587786259542,-205.83969465648855,1758787814.2163749
1.22503662109375,-0.00445556640625,1.15618896484375,244.09923664122138,80.99236641221374,250.12977099236642,1758787814.2356057
1.87548828125,-1.59033203125,-0.004150390625,213.4885496183206,86.63358778625954,-0.015267175572519083,1758787814.2548366
-0.34271240234375,-0.336181640625,-0.015625,135.8091603053435,-240.6793893129771,-0.015267175572519083,1758787814.2740672
-1.00006103515625,1.8958740234375,1.3514404296875,-0.366412213740458,-38.603053435114504,29.236641221374047,1758787814.293298
-0.177734375,-0.19488525390625,0.838623046875,-3.564885496183206,64.98473282442748,23.091603053435115,1758787814.2103686
-0.13482666015625,-0.1875,0.7918701171875,-4.412213740458015,71.31297709923665,22.572519083969464,1758787814.2295995
-0.08984375,-0.19183349609375,0.7879638671875,-1.5190839694656488,78.64885496183206,21.076335877862597,1758787814.24883
-1.85504150390625,-1.5543212890625,-0.984375,242.29770992366412,-41.12977099236641,-196.99236641221373,1758787814.268061
1.23431396484375,0.080810546875,-1.9993896484375,-41.030534351145036,-17.671755725190838,143.04580152671755,1758787814.2872918
0.93743896484375,1.54986572265625,-0.24945068359375,-168.0229007633588,-179.84732824427482,-177.3969465648855,1758787814.3065224
1.26544189453125,0.300048828125,0.26617431640625,66.38167938931298,-0.8854961832061069,250.12977099236642,1758787814.3257532
-1.603515625,-0.024169921875,-6.103515625e-05,210.06870229007635,154.70229007633588,144.44274809160305,1758787814.344984
-1.00006103515625,-0.384033203125,0.02838134765625,-1.9541984732824427,-105.04580152671755,-68.6030534351145,1758787814.3642147
0.86041259765625,-0.10833740234375,0.8726806640625,-1.9465648854961832,-65.47328244274809,241.77862595419847,1758787814.3834455
-0.4185791015625,-1.00006103515625,1.182861328125,-2.9389312977099236,-0.007633587786259542,-233.53435114503816,1758787814.4026763
-0.36572265625,1.62384033203125,-1.0001220703125,-238.2824427480916,3.366412213740458,33.221374045801525,1758787814.4219072
0.8590087890625,0.01904296875,0.99993896484375,143.0381679389313,-58.0763358778626,-1.9236641221374047,1758787814.4411378
1.16790771484375,1.886474609375,-1.5758056640625,125.06106870229007,145.12213740458014,-3.7786259541984735,1758787814.4603686
-6.103515625e-05,1.41790771484375,-0.60992431640625,-54.038167938931295,-9.641221374045802,185.55725190839695,1758787814.4795995
-0.01556396484375,1.22650146484375,0.7740478515625,99.6793893129771,-125.07633587786259,-99.00763358778626,1758787814.49883
0.0360107421875,-0.015625,-1.95709228515625,30.38167938931298,-225.75572519083968,-0.007633587786259542,1758787814.518061
0.80230712890625,-0.03271484375,1.01959228515625,-4.145038167938932,-36.38931297709924,-4.580152671755725,1758787814.8255198
0.78955078125,-0.03466796875,1.0482177734375,-3.4656488549618323,-42.86259541984733,-5.862595419847328,1758787814.8447506
0.7598876953125,-0.03131103515625,1.03826904296875,-2.0,-50.961832061068705,-8.687022900763358,1758787814.8639812
0.50103759765625,-1.201416015625,-1.37506103515625,-167.5267175572519,-150.0381679389313,-0.015267175572519083,1758787814.883212
-2.0,0.4058837890625,-0.02264404296875,-19.549618320610687,107.54198473282443,168.12213740458014,1758787814.902443
-0.0006103515625,-0.7393798828125,-0.11126708984375,-57.48854961832061,35.16793893129771,154.63358778625954,1758787814.9216735
0.02142333984375,-1.9803466796875,-0.8272705078125,-2.198473282442748,1.9465648854961832,-70.35114503816794,1758787814.9409044
-1.84228515625,-0.0001220703125,-0.9854736328125,-207.81679389312978,-3.4885496183206106,1.9465648854961832,1758787814.9601352
1.84375,-1.37652587890625,-0.0001220703125,23.85496183206107,187.18320610687022,25.412213740458014,1758787814.9793658
-1.411376953125,1.40667724609375,-1.92474365234375,-195.4198473282443,19.610687022900763,-175.15267175572518,1758787814.9985967
1.37066650390625,-1.85406494140625,-0.650390625,-113.2824427480916,-207.78625954198472,176.00763358778627,1758787815.0178275
-1.92449951171875,-1.6337890625,-0.82757568359375,231.3206106870229,171.4885496183206,-232.05343511450383,1758787815.0370584
-0.7109375,0.26611328125,-1.8104248046875,2.6793893129770994,-124.86259541984732,-132.9770992366412,1758787815.056289
-0.07427978515625,0.43743896484375,-1.39453125,3.0076335877862594,-0.007633587786259542,-249.9236641221374,1758787815.0755198
-0.67022705078125,-0.02642822265625,0.45306396484375,-152.91603053435114,-219.5648854961832,-0.015267175572519083,1758787815.0947506
0.54791259765625,-1.89984130859375,0.42193603515625,126.04580152671755,-176.6412213740458,-0.007633587786259542,1758787815.1139812
-1.9984130859375,-1.06298828125,-0.006591796875,56.66412213740458,104.54961832061069,-11.427480916030534,1758787815.133212
-0.85198974609375,-0.0859375,0.52642822265625,-6.4961832061068705,6.977099236641221,4.030534351145038,1758787815.7297256
-0.8349609375,-0.0906982421875,0.558837890625,-5.3893129770992365,8.50381679389313,1.816793893129771,1758787815.7489562
-0.8182373046875,-0.04730224609375,0.57171630859375,-5.526717557251908,10.114503816793894,1.0763358778625953,1758787815.768187
0.61260986328125,0.61468505859375,0.0625,-82.56488549618321,175.6793893129771,247.46564885496184,1758787815.787418
-1.2861328125,0.42242431640625,0.101318359375,171.29007633587787,-238.72519083969465,-86.22900763358778,1758787815.8066485
-0.65576171875,-0.16021728515625,1.40521240234375,247.63358778625954,-157.6793893129771,158.3587786259542,1758787815.8258793
0.85125732421875,1.3697509765625,-1.910888671875,-86.22900763358778,103.63358778625954,184.0,1758787815.8451102
0.0142822265625,-1.00091552734375,-0.09930419921875,-214.2824427480916,-30.30534351145038,18.931297709923665,1758787815.8643408
1.924072265625,-1.3111572265625,-1.93218994140625,94.81679389312977,17.251908396946565,-124.66412213740458,1758787815.8835716
-0.04949951171875,1.77105712890625,1.0076904296875,18.946564885496183,241.14503816793894,-159.8320610687023,1758787815.9028025
1.72406005859375,1.75811767578125,0.137939453125,172.09923664122138,199.76335877862596,148.5114503816794,1758787815.9220333
1.1717529296875,-0.00030517578125,0.00677490234375,-137.35114503816794,-16.076335877862597,211.04580152671755,1758787815.941264
0.5,-1.84783935546875,-0.00067138671875,0.816793893129771,125.06106870229007,-12.13740458015267,1758787815.9604948
1.74993896484375,1.109375,-1.89630126953125,1.1908396946564885,-100.3969465648855,-7.1679389312977095,1758787815.9797256
0.57916259765625,-0.03277587890625,0.09765625,4.152671755725191,-100.74045801526718,-9.48091603053435,1758787815.9989562
0.5941162109375,-0.03094482421875,0.1097412109375,6.877862595419847,-99.1526717557252,-9.816793893129772,1758787816.018187
-0.76947021484375,-0.12835693359375,0.65155029296875,-24.061068702290076,20.893129770992367,4.221374045801527,1758787815.9307508
-0.7655029296875,-0.13311767578125,0.65313720703125,-20.549618320610687,22.076335877862597,2.1908396946564888,1758787815.9499817
-0.761962890625,-0.11285400390625,0.68603515625,-18.740458015267176,23.213740458015266,0.32061068702290074,1758787815.9692125
0.73760986328125,-0.34173583984375,-1.078125,230.06106870229007,176.99236641221373,-247.44274809160305,1758787815.9884431
-0.673828125,0.56304931640625,1.10040283203125,171.90076335877862,-236.50381679389312,-32.97709923664122,1758787816.007674
0.53173828125,-0.4105224609375,1.416015625,-246.70229007633588,-72.79389312977099,-138.6793893129771,1758787816.0269048
-0.64971923828125,1.37469482421875,-1.8875732421875,-28.946564885496183,138.8091603053435,202.55725190839695,1758787816.0461354
0.009521484375,-0.75360107421875,-0.1094970703125,87.00763358778626,-19.87786259541985,23.732824427480917,1758787816.0653663
-0.00579833984375,-0.745361328125,-0.1119384765625,85.34351145038168,-21.83969465648855,23.244274809160306,1758787816.084597
-0.0218505859375,-0.736572265625,-0.13812255859375,84.81679389312977,-22.282442748091604,23.442748091603054,1758787816.1038277
-0.0552978515625,1.62603759765625,-0.603515625,54.70992366412214,150.4732824427481,3.3893129770992365,1758787816.1230586
0.00634765625,-0.998291015625,-1.0875244140625,218.87786259541986,54.717557251908396,39.083969465648856,1758787816.1422894
0.02886962890625,0.00732421875,0.001708984375,-102.61832061068702,218.87786259541986,33.221374045801525,1758787816.1615202
1.17828369140625,0.0238037109375,0.00164794921875,-133.8091603053435,211.06106870229007,54.717557251908396,1758787816.1807508
-1.59765625,0.02789306640625,0.006591796875,125.29007633587786,-44.083969465648856,218.87786259541986,1758787816.1999817
0.421875,0.07421875,0.026123046875,0.8549618320610687,207.27480916030535,-237.3740458015267,1758787816.2192125
0.42193603515625,-1.328125,0.02508544921875,0.8244274809160306,-124.86259541984732,-109.35114503816794,1758787816.2384431
1.75006103515625,0.4375,1.93359375,3.595419847328244,0.8854961832061069,125.27480916030534,1758787816.257674
-0.6884765625,-0.1580810546875,0.681396484375,-20.625954198473284,26.81679389312977,-29.14503816793893,1758787816.0853786
-0.6763916015625,-0.18115234375,0.69390869140625,-20.793893129770993,28.251908396946565,-37.63358778625954,1758787816.1046095
-0.6590576171875,-0.1865234375,0.70025634765625,-25.99236641221374,30.984732824427482,-47.725190839694655,1758787816.12384
0.81573486328125,0.267333984375,-1.37493896484375,-145.15267175572518,177.29770992366412,-245.74809160305344,1758787816.143071
-0.41015625,0.81304931640625,0.60028076171875,171.98473282442748,-233.9236641221374,-17.46564885496183,1758787816.1623018
-1.46826171875,-1.6605224609375,1.41766357421875,-246.10687022900763,-54.595419847328245,123.18320610687023,1758787816.1815324
0.350341796875,1.37518310546875,-1.87054443359375,-25.0381679389313,33.282442748091604,14.534351145038167,1758787816.2007632
-0.00946044921875,-1.00006103515625,0.6383056640625,204.23664122137404,-1.9541984732824427,158.7709923664122,1758787816.219994
0.42120361328125,0.006591796875,-6.103515625e-05,6.8320610687022905,0.3282442748091603,-1.9541984732824427,1758787816.2392247
-1.20709228515625,-1.8248291015625,0.169921875,220.95419847328245,109.8473282442748,-1.9465648854961832,1758787816.2584555
-0.30474853515625,-1.87457275390625,0.0,-125.07633587786259,-20.091603053435115,-77.38931297709924,1758787816.2776864
-0.01031494140625,-1.15631103515625,-1.513427734375,-13.86259541984733,250.12977099236642,169.87786259541986,1758787816.2969172
-0.0484619140625,0.27044677734375,-1.7274169921875,2.381679389312977,-0.007633587786259542,138.13740458015266,1758787816.3161478
0.01190185546875,-0.015625,0.55072021484375,-194.29007633587787,176.82442748091603,123.95419847328245,1758787816.3353786
-1.18994140625,-0.0467529296875,-6.103515625e-05,-170.5114503816794,-192.80152671755727,-27.229007633587788,1758787816.3546095
1.79791259765625,0.8875732421875,1.59381103515625,-181.26717557251908,207.4351145038168,64.95419847328245,1758787816.37384
0.86322021484375,-1.9730224609375,0.01568603515625,113.49618320610686,-158.31297709923663,163.42748091603053,1758787816.393071
-0.6181640625,-0.21014404296875,0.6658935546875,-27.49618320610687,34.656488549618324,-57.38931297709924,1758787816.200759
-0.57025146484375,-0.18695068359375,0.72686767578125,-24.66412213740458,37.52671755725191,-70.76335877862596,1758787816.2199898
-0.54595947265625,-0.1380615234375,0.8197021484375,-27.96946564885496,36.916030534351144,-86.34351145038168,1758787816.2392206
0.86260986328125,0.2393798828125,0.79693603515625,42.396946564885496,177.3740458015267,-239.57251908396947,1758787816.2584512
-1.0048828125,1.45367431640625,-0.90032958984375,172.06106870229007,-227.98473282442748,-82.3206106870229,1758787816.277682
-0.18701171875,1.58880615234375,1.4168701171875,-238.01526717557252,-155.48091603053436,-121.09160305343511,1758787816.296913
0.34954833984375,1.3753662109375,-1.81103515625,-99.66412213740458,138.8091603053435,-182.38931297709922,1758787816.3161435
0.00701904296875,-0.5078125,-0.08154296875,102.23664122137404,-41.89312977099237,33.404580152671755,1758787816.3353744
-0.80010986328125,-0.4324951171875,-0.01275634765625,91.51908396946565,-48.29770992366412,28.427480916030536,1758787816.3546052
-0.89324951171875,-0.36895751953125,0.12725830078125,89.96946564885496,-42.14503816793893,23.50381679389313,1758787816.3738358
-1.0003662109375,1.87603759765625,-0.0037841796875,218.86259541984734,-247.42748091603053,-34.9236641221374,1758787816.3930666
-0.0001220703125,0.0,-1.0,-2.6030534351145036,-158.29770992366412,158.29007633587787,1758787816.4122975
0.5244140625,-6.103515625e-05,0.0067138671875,4.091603053435114,-0.5038167938931297,35.16793893129771,1758787816.4315283
1.94488525390625,0.02606201171875,1.2513427734375,35.13740458015267,-0.5114503816793893,107.47328244274809,1758787816.450759
1.18890380859375,-1.90625,-0.00030517578125,-247.00763358778627,-218.5648854961832,-0.5190839694656488,1758787816.4699898
-1.14068603515625,1.0045166015625,-0.00091552734375,-0.007633587786259542,238.54198473282443,-164.46564885496184,1758787816.4892206
0.42193603515625,-0.79339599609375,-0.03216552734375,-0.007633587786259542,250.12977099236642,-30.366412213740457,1758787816.5084512
-0.0001220703125,-0.09381103515625,1.35528564453125,-0.11450381679389313,-0.007633587786259542,-0.007633587786259542,1758787816.527682
-0.2730712890625,0.689697265625,0.8062744140625,-10.320610687022901,17.404580152671755,-146.10687022900763,1758787816.3250747
-0.25921630859375,0.737060546875,0.826171875,-11.572519083969466,22.27480916030534,-142.33587786259542,1758787816.3443055
-0.24664306640625,0.81878662109375,0.87738037109375,-13.618320610687023,22.106870229007633,-130.08396946564886,1758787816.3635361
-1.99896240234375,-1.8011474609375,-6.103515625e-05,13.183206106870228,-0.12213740458015267,-0.007633587786259542,1758787816.382767
0.99993896484375,-0.24957275390625,-6.103515625e-05,-0.007633587786259542,14.16030534351145,-0.12213740458015267,1758787816.4019978
-6.103515625e-05,0.99993896484375,-0.24957275390625,-0.007633587786259542,35.16793893129771,45.93129770992366,1758787816.4212284
0.01904296875,0.99993896484375,-0.24957275390625,-0.007633587786259542,-0.007633587786259542,14.16030534351145,1758787816.4404593
-0.00390625,-0.00030517578125,1.9998779296875,-31.213740458015266,-7.824427480916031,-0.007633587786259542,1758787816.45969
0.10540771484375,-0.0009765625,-6.103515625e-05,117.65648854961832,110.07633587786259,54.725190839694655,1758787816.4789207
1.33917236328125,1.3997802734375,1.9764404296875,179.4198473282443,-240.29770992366412,-50.02290076335878,1758787816.4981515
1.3619384765625,-1.91595458984375,1.662109375,48.916030534351144,167.5267175572519,175.40458015267177,1758787816.5173824
1.9593505859375,1.841796875,0.89117431640625,106.33587786259542,170.45038167938932,-241.31297709923663,1758787816.5366132
1.78125,0.26611328125,0.2891845703125,2.6793893129770994,-126.66412213740458,-31.221374045801525,1758787816.5558438
-6.103515625e-05,-6.103515625e-05,0.11712646484375,-0.12213740458015267,-0.06870229007633588,241.54961832061068,1758787816.5750747
-0.24957275390625,-6.103515625e-05,1.01556396484375,13.587786259541986,-0.12213740458015267,-0.007633587786259542,1758787816.5943055
-1.95208740234375,1.48919677734375,0.26568603515625,13.572519083969466,-0.12213740458015267,-0.007633587786259542,1758787816.6135361
1.8990478515625,-0.24957275390625,-6.103515625e-05,-0.007633587786259542,13.183206106870228,-0.12213740458015267,1758787816.632767
-0.27752685546875,0.51025390625,0.918701171875,18.15267175572519,20.015267175572518,47.786259541984734,1758787816.710841
-0.27362060546875,0.5191650390625,0.88800048828125,19.14503816793893,18.48854961832061,48.778625954198475,1758787816.7300718
-0.27777099609375,0.4881591796875,0.88348388671875,23.236641221374047,18.129770992366414,53.25954198473283,1758787816.7493026
-1.54583740234375,-1.54132080078125,-0.015625,-0.007633587786259542,3.5343511450381677,0.8244274809160306,1758787816.7685332
-6.103515625e-05,-1.25006103515625,1.81256103515625,-1.9541984732824427,-0.007633587786259542,3.4122137404580153,1758787816.787764
0.0068359375,-6.103515625e-05,-1.00006103515625,203.24427480916032,33.221374045801525,194.67175572519085,1758787816.806995
0.01190185546875,-6.103515625e-05,-1.00006103515625,211.06106870229007,-1.9541984732824427,-0.007633587786259542,1758787816.8262255
0.02923583984375,0.006591796875,-6.103515625e-05,-93.80916030534351,203.24427480916032,-1.9541984732824427,1758787816.8454564
-6.103515625e-05,0.02630615234375,0.006591796875,-189.42748091603053,-117.98473282442748,-1.9541984732824427,1758787816.8646872
-6.103515625e-05,0.02728271484375,0.006591796875,-0.007633587786259542,-93.80916030534351,234.5114503816794,1758787816.8839178
-0.015625,-0.17974853515625,0.02728271484375,0.8854961832061069,-0.007633587786259542,-156.34351145038167,1758787816.9031487
1.68756103515625,0.828125,-1.82366943359375,0.8931297709923665,-199.49618320610688,237.9618320610687,1758787816.9223795
-0.4788818359375,0.258544921875,0.14447021484375,118.74809160305344,-112.68702290076335,127.68702290076335,1758787816.9416103
1.25860595703125,0.13330078125,-1.60528564453125,-244.23664122137404,-249.45038167938932,219.94656488549617,1758787816.960841
0.14404296875,0.950439453125,-0.5015869140625,-171.3053435114504,-249.06106870229007,16.68702290076336,1758787816.9800718
1.15948486328125,0.8782958984375,-0.09368896484375,198.53435114503816,176.94656488549617,-222.6946564885496,1758787816.9993026
0.7275390625,1.85992431640625,0.59747314453125,171.93893129770993,-222.54961832061068,-231.93893129770993,1758787817.0185332
0.00048828125,0.08746337890625,1.415771484375,-221.3969465648855,65.70992366412214,-44.87786259541985,1758787817.037764
-0.27618408203125,0.465576171875,0.89227294921875,32.083969465648856,17.541984732824428,56.587786259541986,1758787816.8010838
-0.26849365234375,0.3953857421875,0.880126953125,38.221374045801525,15.732824427480915,59.68702290076336,1758787816.8203146
-0.2734375,0.39898681640625,0.8673095703125,35.97709923664122,15.511450381679388,59.61068702290076,1758787816.8395455
1.17510986328125,0.85028076171875,-1.34368896484375,42.20610687022901,177.23664122137404,-220.18320610687022,1758787816.858776
0.2646484375,1.03179931640625,-0.15228271484375,172.59541984732823,-220.10687022900763,-250.13740458015266,1758787816.878007
-0.95263671875,0.0875244140625,1.4190673828125,-218.64885496183206,5.251908396946565,119.27480916030534,1758787816.8972378
-0.402099609375,1.3831787109375,-1.74810791015625,242.3206106870229,138.8091603053435,220.25954198473283,1758787816.9164684
0.01654052734375,-0.27825927734375,0.3837890625,103.2442748091603,31.870229007633586,16.412213740458014,1758787816.9356992
0.47314453125,-0.28082275390625,0.35552978515625,108.08396946564885,33.47328244274809,18.419847328244273,1758787816.95493
0.47369384765625,-0.27294921875,0.32257080078125,110.74809160305344,35.51145038167939,18.885496183206108,1758787816.9741607
0.4786376953125,-1.49896240234375,0.59600830078125,-1.9541984732824427,-29.3206106870229,3.4122137404580153,1758787816.9933915
0.007080078125,0.99993896484375,-0.51348876953125,242.32824427480915,-1.9541984732824427,-237.44274809160305,1758787817.0126224
0.02825927734375,0.0068359375,-6.103515625e-05,-156.34351145038167,203.24427480916032,162.19847328244273,1758787817.0318532
-1.73114013671875,0.03082275390625,0.50164794921875,63.48091603053435,62.732824427480914,63.458015267175576,1758787817.0510838
0.50146484375,0.5086669921875,0.50152587890625,63.595419847328245,62.74045801526717,63.603053435114504,1758787817.0703146
0.5015869140625,0.50872802734375,-1.48333740234375,-12.572519083969466,-1.9465648854961832,-21.50381679389313,1758787817.0895455
0.0272216796875,0.006591796875,0.99993896484375,-104.13740458015268,218.87786259541986,-1.9541984732824427,1758787817.108776
-1.04693603515625,0.02508544921875,0.00634765625,-0.007633587786259542,-65.77099236641222,203.24427480916032,1758787817.128007
-0.25286865234375,0.12548828125,0.92449951171875,31.251908396946565,18.198473282442748,55.66412213740458,1758787817.0754068
-0.25457763671875,0.09332275390625,0.9095458984375,33.770992366412216,19.52671755725191,58.66412213740458,1758787817.0946376
-0.2667236328125,0.076904296875,0.9571533203125,41.38167938931298,20.801526717557252,62.05343511450382,1758787817.1138682
1.28448486328125,-1.55804443359375,0.8125,104.81679389312977,178.53435114503816,-224.41221374045801,1758787817.133099
1.8125,0.06304931640625,-0.40179443359375,173.2824427480916,-224.4732824427481,-122.50381679389314,1758787817.15233
-1.85888671875,-1.4119873046875,1.427734375,-225.50381679389312,-227.66412213740458,-238.34351145038167,1758787817.1715605
1.8480224609375,1.3846435546875,-1.80487060546875,-101.00763358778626,103.63358778625954,155.01526717557252,1758787817.1907914
0.02142333984375,-1.4788818359375,1.72003173828125,203.93129770992365,157.40458015267177,18.801526717557252,1758787817.2100222
1.05963134765625,-1.6441650390625,0.97412109375,-186.53435114503816,17.259541984732824,-188.08396946564886,1758787817.2292528
1.95147705078125,-1.30694580078125,0.508544921875,18.938931297709924,126.86259541984732,-211.3740458015267,1758787817.2484837
0.83349609375,-1.991455078125,0.1385498046875,-136.25190839694656,109.8473282442748,17.595419847328245,1758787817.2677145
1.17083740234375,-1.6717529296875,-1.44940185546875,179.9618320610687,15.717557251908397,-208.84732824427482,1758787817.2869453
0.6240234375,-0.54693603515625,-0.715087890625,17.755725190839694,179.87786259541986,-95.50381679389314,1758787817.306176
-0.4228515625,-1.34393310546875,-0.9493408203125,138.9083969465649,-62.44274809160305,103.81679389312977,1758787817.3254068
1.427001953125,0.03094482421875,-1.53289794921875,-225.18320610687022,55.412213740458014,1.0763358778625953,1758787817.3446376
0.15228271484375,0.96917724609375,-1.7564697265625,166.77862595419847,-217.80152671755727,17.389312977099237,1758787817.3638682
-1.5633544921875,-1.62957763671875,-0.96319580078125,94.87786259541984,19.14503816793893,116.01526717557252,1758787817.383099
-0.232666015625,-0.1519775390625,0.98846435546875,32.900763358778626,15.236641221374045,49.961832061068705,1758787817.2292755
-0.2264404296875,-0.12884521484375,0.9901123046875,30.671755725190838,13.931297709923664,45.221374045801525,1758787817.248506
-0.21649169921875,-0.1490478515625,0.99713134765625,26.259541984732824,12.15267175572519,43.0763358778626,1758787817.267737
1.37823486328125,-1.55804443359375,-1.8125,-239.21374045801528,178.83969465648855,-219.48091603053436,1758787817.2869678
-1.015625,-1.20257568359375,0.59716796875,173.0229007633588,-222.90076335877862,-13.801526717557252,1758787817.3061984
-1.07763671875,-1.66259765625,1.429931640625,-219.95419847328245,-121.64885496183206,107.54961832061069,1758787817.3254292
1.5972900390625,1.38385009765625,-1.78277587890625,-2.687022900763359,103.63358778625954,164.8320610687023,1758787817.34466
0.01904296875,-1.60009765625,-1.91961669921875,168.75572519083968,1.0916030534351144,19.099236641221374,1758787817.3638906
0.9281005859375,-1.5894775390625,-0.47900390625,-186.5267175572519,17.61832061068702,-199.29007633587787,1758787817.3831215
-1.87957763671875,1.53680419921875,-1.49127197265625,19.114503816793892,117.55725190839695,-182.54961832061068,1758787817.4023523
-0.05712890625,-1.74139404296875,0.14117431640625,-130.38931297709922,-193.93129770992365,-5.862595419847328,1758787817.4215832
-0.20404052734375,0.1553955078125,-0.5743408203125,-212.9236641221374,-240.32824427480915,-35.01526717557252,1758787817.4408138
0.78033447265625,1.90533447265625,1.6131591796875,15.709923664122137,-244.23664122137404,-9.618320610687023,1758787817.4600446
1.99908447265625,0.9365234375,-0.84002685546875,-74.19083969465649,-183.66412213740458,33.3587786259542,1758787817.4792755
1.18310546875,-0.00714111328125,0.47650146484375,0.0,-7.816793893129771,1.9465648854961832,1758787817.498506
0.0,0.0,-0.000244140625,-250.13740458015266,63.51908396946565,-7.33587786259542,1758787817.517737
-0.2042236328125,-0.27398681640625,0.9775390625,12.045801526717558,8.206106870229007,24.748091603053435,1758787817.3496516
-0.19720458984375,-0.25665283203125,0.96484375,11.297709923664122,7.015267175572519,19.740458015267176,1758787817.3688822
-0.19476318359375,-0.257568359375,0.9805908203125,10.427480916030534,6.526717557251908,15.954198473282442,1758787817.388113
-0.99896240234375,0.34918212890625,-1.07818603515625,0.007633587786259542,234.74809160305344,-0.061068702290076333,1758787817.4073439
0.82000732421875,-0.2484130859375,-0.1209716796875,-0.007633587786259542,-143.6412213740458,-104.54198473282443,1758787817.4265745
-0.000244140625,-1.00006103515625,1.019775390625,-13.778625954198473,35.16793893129771,13.198473282442748,1758787817.4458053
0.01190185546875,0.5333251953125,1.25,-30.33587786259542,-115.30534351145039,0.21374045801526717,1758787817.4650362
0.96875,-0.000244140625,0.99371337890625,-91.06870229007633,-6.267175572519084,97.70229007633588,1758787817.4842668
0.46868896484375,0.1505126953125,-0.00018310546875,-121.03053435114504,-118.45801526717557,-170.01526717557252,1758787817.5034976
-1.59771728515625,-1.4013671875,-0.000244140625,123.93893129770993,0.0,-46.045801526717554,1758787817.5227284
-1.64068603515625,-1.92083740234375,-0.4931640625,-0.183206106870229,-201.00763358778627,96.3587786259542,1758787817.5419593
-0.04486083984375,0.28118896484375,-1.03497314453125,1.4885496183206106,125.06106870229007,-248.13740458015266,1758787817.56119
-0.0498046875,-6.103515625e-05,0.78118896484375,-205.1908396946565,-0.030534351145038167,76.2824427480916,1758787817.5804207
-0.47906494140625,-0.04620361328125,0.01556396484375,138.25954198473283,111.51908396946565,-0.022900763358778626,1758787817.5996516
-0.93646240234375,-0.9378662109375,0.359375,105.61832061068702,-66.19847328244275,-0.030534351145038167,1758787817.6188822
0.92926025390625,-0.9951171875,-0.426513671875,-0.007633587786259542,-120.6793893129771,108.10687022900764,1758787817.638113
-0.17315673828125,-0.22900390625,0.98602294921875,-1.633587786259542,3.0076335877862594,-4.404580152671755,1758787817.8444426
-0.17022705078125,-0.2225341796875,0.98687744140625,-2.9770992366412212,3.2290076335877864,-3.83206106870229,1758787817.8636732
-0.16424560546875,-0.2257080078125,0.98919677734375,-4.351145038167939,3.099236641221374,-3.3740458015267176,1758787817.882904
-0.49896240234375,-1.221923828125,0.45306396484375,-167.57251908396947,-201.74045801526717,-0.05343511450381679,1758787817.902135
0.00177001953125,0.839599609375,-0.0367431640625,54.70992366412214,210.0763358778626,97.04580152671755,1758787817.9213655
-0.0001220703125,-1.99835205078125,1.6318359375,-3.6793893129770994,35.16793893129771,97.47328244274809,1758787817.9405963
0.02142333984375,-0.998291015625,0.8275146484375,-4.580152671755725,56.66412213740458,-61.06870229007634,1758787817.9598272
-1.305419921875,-0.00018310546875,-1.9984130859375,173.19847328244273,-3.595419847328244,52.7557251908397,1758787817.9790578
1.3203125,0.67242431640625,-0.0001220703125,-58.49618320610687,186.7175572519084,54.725190839694655,1758787817.9982886
-0.1796875,-1.25457763671875,-0.00042724609375,-249.93129770992365,41.06106870229008,-4.580152671755725,1758787818.0175195
0.43743896484375,-0.11328125,0.68890380859375,-0.015267175572519083,125.27480916030534,-76.96946564885496,1758787818.0367503
-0.0286865234375,0.28118896484375,-0.36114501953125,2.6793893129770994,0.21374045801526717,-143.77862595419847,1758787818.055981
-0.03570556640625,0.45306396484375,0.0234375,-146.76335877862596,-0.022900763358778626,-124.87022900763358,1758787818.0752118
-1.12530517578125,-0.02850341796875,0.43743896484375,140.21374045801528,53.06106870229008,-0.015267175572519083,1758787818.0944426
-0.43646240234375,1.50225830078125,0.45318603515625,-188.0916030534351,-131.38167938931298,-0.05343511450381679,1758787818.1136732
-0.998291015625,1.349365234375,-0.0966796875,54.70992366412214,-192.4885496183206,116.58015267175573,1758787818.132904
-0.1849365234375,-0.190673828125,0.98577880859375,-10.694656488549619,0.549618320610687,-4.824427480916031,1758787818.0804677
-0.1795654296875,-0.19122314453125,0.97027587890625,-11.511450381679388,0.9694656488549618,-5.320610687022901,1758787818.0996985
-0.1802978515625,-0.17987060546875,0.97943115234375,-10.86259541984733,1.0381679389312977,-5.519083969465649,1758787818.1189291
1.81573486328125,1.48175048828125,-0.15618896484375,42.412213740458014,179.3969465648855,-223.14503816793894,1758787818.13816
-1.677734375,-0.23382568359375,-0.1497802734375,174.77862595419847,-217.6793893129771,-1.5877862595419847,1758787818.1573908
-1.92138671875,-0.41082763671875,1.43475341796875,-223.04580152671755,-204.82442748091603,-128.9083969465649,1758787818.1766214
-1.39971923828125,1.39776611328125,-1.73828125,3.2977099236641223,33.29007633587786,-191.63358778625954,1758787818.1958523
-0.00238037109375,0.00177001953125,1.31964111328125,-4.099236641221374,58.61832061068702,24.427480916030536,1758787818.2150831
-0.068115234375,-0.00018310546875,-0.99835205078125,-237.94656488549617,-3.145038167938931,54.70992366412214,1758787818.2343137
1.90234375,1.3128662109375,-0.0001220703125,-29.18320610687023,-162.36641221374046,56.6793893129771,1758787818.2535446
-1.4765625,-0.308349609375,-0.00018310546875,0.21374045801526717,135.57251908396947,-3.8091603053435112,1758787818.2727754
0.42181396484375,1.265625,1.92132568359375,-0.015267175572519083,0.20610687022900764,-113.51908396946565,1758787818.2920063
-0.02667236328125,0.28118896484375,0.6241455078125,3.2748091603053435,-249.91603053435114,69.77862595419847,1758787818.3112369
-0.0335693359375,0.45306396484375,-1.56640625,12.98473282442748,-0.015267175572519083,0.1984732824427481,1758787818.3304677
1.632080078125,-0.02349853515625,0.43743896484375,-221.31297709923663,132.19847328244273,-0.015267175572519083,1758787818.3496985
-0.20208740234375,-1.28887939453125,0.46881103515625,247.206106870229,-105.25954198473282,-0.022900763358778626,1758787818.3689291
-1.998291015625,0.32342529296875,-0.031494140625,52.7557251908397,66.93129770992367,204.6412213740458,1758787818.38816
-0.19415283203125,-0.08685302734375,0.98004150390625,-14.282442748091603,1.6412213740458015,-7.404580152671755,1758787818.4701848
-0.195556640625,-0.07855224609375,0.990966796875,-14.282442748091603,1.6870229007633588,-7.0534351145038165,1758787818.4894156
-0.1998291015625,-0.081298828125,0.99658203125,-13.305343511450381,1.7633587786259541,-7.66412213740458,1758787818.5086462
1.97198486328125,1.2237548828125,-0.421875,-113.85496183206106,180.24427480916032,-219.0381679389313,1758787818.527877
-1.015625,1.76617431640625,1.101318359375,176.08396946564886,-208.90076335877862,120.67175572519083,1758787818.547108
-1.49945068359375,1.8397216796875,1.44146728515625,-218.86259541984734,-123.23664122137404,-29.244274809160306,1758787818.5663385
0.35137939453125,1.40875244140625,-1.66668701171875,125.19083969465649,103.6412213740458,-4.893129770992366,1758787818.5855694
0.0166015625,-1.00958251953125,1.13507080078125,37.83206106870229,126.16793893129771,19.068702290076335,1758787818.6048002
1.99267578125,0.8792724609375,-1.5413818359375,-123.93129770992367,18.099236641221374,-124.61068702290076,1758787818.6240308
1.24737548828125,0.474365234375,1.7587890625,19.076335877862597,-247.63358778625954,146.24427480916032,1758787818.6432617
-0.3538818359375,-0.49090576171875,0.14495849609375,-249.73282442748092,-162.12977099236642,191.51908396946564,1758787818.6624925
-0.16009521484375,1.4429931640625,-1.748291015625,-120.67175572519083,228.70992366412213,106.52671755725191,1758787818.6817234
1.4124755859375,-1.652587890625,1.1806640625,-195.35114503816794,-113.81679389312977,180.58778625954199,1758787818.700954
-1.74676513671875,-0.9873046875,-0.59320068359375,-174.86259541984734,176.93129770992365,-205.87786259541986,1758787818.7201848
1.2314453125,1.10992431640625,0.9190673828125,2.0839694656488548,-24.374045801526716,-7.320610687022901,1758787818.7394156
0.9949951171875,-0.10491943359375,0.02093505859375,-8.282442748091603,-23.27480916030534,-4.9465648854961835,1758787818.7586462
0.99468994140625,-0.10833740234375,0.02142333984375,-7.312977099236641,-23.480916030534353,-4.061068702290076,1758787818.777877
-0.1866455078125,-0.021484375,0.9952392578125,-10.732824427480915,0.9465648854961832,-6.198473282442748,1758787818.5512712
-0.18511962890625,-0.0020751953125,0.98663330078125,-11.465648854961833,0.9007633587786259,-5.091603053435114,1758787818.5705018
-0.18682861328125,-0.0062255859375,0.9814453125,-11.32824427480916,1.2442748091603053,-3.6946564885496183,1758787818.5897326
0.25103759765625,1.572998046875,0.46868896484375,53.74045801526717,157.33587786259542,-0.022900763358778626,1758787818.6089635
-1.998291015625,0.8172607421875,-0.60009765625,54.47328244274809,-98.68702290076335,-57.36641221374046,1758787818.628194
0.40631103515625,-1.998291015625,-0.92156982421875,50.14503816793893,33.916030534351144,174.05343511450383,1758787818.647425
0.01666259765625,-0.998291015625,-0.1893310546875,-5.076335877862595,54.70992366412214,218.87022900763358,1758787818.6666558
-1.14520263671875,-0.00018310546875,0.00164794921875,12.763358778625955,97.66412213740458,55.97709923664122,1758787818.6858864
-1.66015625,-1.194091796875,0.01129150390625,121.79389312977099,34.603053435114504,60.587786259541986,1758787818.7051172
-1.623046875,0.486328125,-1.623046875,60.82442748091603,-208.85496183206106,58.87022900763359,1758787818.724348
-1.576171875,0.486328125,-1.669921875,58.87022900763359,-201.0381679389313,33.465648854961835,1758787818.7435787
-1.1707763671875,0.01666259765625,-1.9981689453125,99.90839694656489,174.6793893129771,55.97709923664122,1758787818.7628095
0.77734375,-0.8052978515625,-0.00018310546875,0.1984732824427481,140.46564885496184,-3.6717557251908395,1758787818.7820404
0.43743896484375,0.8203125,-0.90496826171875,-161.36641221374046,37.25954198473283,35.29770992366412,1758787818.8012712
0.43756103515625,-1.06640625,1.6544189453125,66.96946564885496,125.27480916030534,135.93893129770993,1758787818.8205018
-1.7215576171875,0.4229736328125,-0.1796875,60.87786259541985,-171.70992366412213,-124.86259541984732,1758787818.8397326
0.5963134765625,-0.0350341796875,0.28118896484375,211.206106870229,2.0916030534351147,-249.91603053435114,1758787818.8589635
-1.9422607421875,-0.04010009765625,0.45306396484375,35.17557251908397,-127.59541984732824,175.0916030534351,1758787818.878194
-1.99835205078125,1.612548828125,-0.1558837890625,54.7557251908397,129.46564885496184,-120.87022900763358,1758787818.897425
-0.1876220703125,0.0650634765625,0.99932861328125,-7.641221374045801,-1.0763358778625953,-6.33587786259542,1758787818.811358
-0.19097900390625,0.07830810546875,0.99566650390625,-7.603053435114504,-1.2366412213740459,-6.778625954198473,1758787818.8305888
-0.19195556640625,0.0760498046875,1.00140380859375,-8.030534351145038,-1.4198473282442747,-6.984732824427481,1758787818.8498197
-1.80926513671875,0.267333984375,0.59381103515625,105.06106870229007,182.0229007633588,-214.4198473282443,1758787818.8690503
-1.7119140625,0.00054931640625,1.85162353515625,177.73282442748092,-206.4885496183206,73.0381679389313,1758787818.888281
1.93804931640625,-0.40997314453125,1.4554443359375,-214.4198473282443,-214.59541984732823,-216.84732824427482,1758787818.907512
-0.39837646484375,1.42138671875,-1.647216796875,77.92366412213741,33.29007633587786,244.51908396946564,1758787818.9267426
-0.007080078125,-1.97174072265625,-1.1507568359375,229.70992366412213,0.007633587786259542,50.3206106870229,1758787818.9459734
-0.23284912109375,0.00201416015625,-0.99884033203125,20.389312977099237,207.38931297709922,56.67175572519084,1758787818.9652042
-1.31640625,-1.04058837890625,0.00714111328125,64.61832061068702,109.8473282442748,0.007633587786259542,1758787818.9844348
1.65234375,1.77960205078125,0.00689697265625,-122.44274809160305,-109.18320610687023,-238.6412213740458,1758787819.0036657
0.0,-0.45703125,0.40386962890625,0.4122137404580153,-236.23664122137404,234.0381679389313,1758787819.0228965
0.77691650390625,1.10943603515625,1.62261962890625,1.1908396946564885,-24.045801526717558,10.15267175572519,1758787819.0421274
0.99713134765625,-0.06036376953125,-0.01177978515625,-6.923664122137405,-24.572519083969464,10.213740458015268,1758787819.061358
0.99261474609375,-0.05029296875,-0.0107421875,-6.770992366412214,-24.702290076335878,10.732824427480915,1758787819.0805888
0.99957275390625,-0.04290771484375,-0.01202392578125,-7.511450381679389,66.57251908396947,110.54198473282443,1758787819.0998197
-0.99993896484375,-1.6395263671875,1.78839111328125,3.0,-118.97709923664122,108.55725190839695,1758787819.1190503
-0.8458251953125,0.0,-1.33984375,40.85496183206107,0.015267175572519083,-114.34351145038168,1758787819.138281
-0.234619140625,0.03253173828125,1.000732421875,7.358778625954199,-9.595419847328245,2.3206106870229006,1758787819.6596305
-0.2352294921875,0.04632568359375,1.01043701171875,7.206106870229007,-10.541984732824428,2.366412213740458,1758787819.6788611
-0.23480224609375,0.03594970703125,1.01171875,6.6106870229007635,-11.473282442748092,2.9770992366412212,1758787819.698092
-1.41864013671875,0.61468505859375,1.640625,136.3740458015267,182.8320610687023,-211.4885496183206,1758787819.7173228
-0.9697265625,1.46929931640625,-0.397705078125,178.72519083969465,-199.09923664122138,180.27480916030535,1758787819.7365534
-1.57757568359375,0.59033203125,1.46136474609375,-211.6412213740458,-113.58778625954199,-230.5267175572519,1758787819.7557843
-0.3978271484375,1.42791748046875,-1.5968017578125,178.8091603053435,103.6412213740458,134.15267175572518,1758787819.775015
0.01190185546875,-0.88104248046875,1.98565673828125,-225.9770992366412,188.72519083969465,19.12213740458015,1758787819.7942457
-1.86383056640625,1.2855224609375,-1.44757080078125,1.16793893129771,18.290076335877863,-112.14503816793894,1758787819.8134766
1.87139892578125,1.70880126953125,-0.49102783203125,19.137404580152673,-236.36641221374046,134.3969465648855,1758787819.8327074
-1.97882080078125,1.25933837890625,0.14630126953125,-48.31297709923664,-194.3969465648855,-197.3740458015267,1758787819.8519382
-1.1884765625,0.18756103515625,-1.98046875,-197.35114503816794,-50.86259541984733,-246.22137404580153,1758787819.8711689
-1.1728515625,1.171875,-0.49609375,-9.748091603053435,-39.14503816793893,35.18320610687023,1758787819.8903997
0.6240234375,1.078125,1.05078125,166.13740458015266,-191.57251908396947,-203.2290076335878,1758787819.9096305
1.39129638671875,0.01666259765625,1.3604736328125,1.1603053435114503,1.3358778625954197,23.83206106870229,1758787819.9288611
-6.103515625e-05,0.00799560546875,1.7852783203125,-113.53435114503817,-1.916030534351145,52.93893129770992,1758787819.948092
-0.3148193359375,-0.01458740234375,0.95220947265625,6.4961832061068705,-18.6793893129771,2.5877862595419847,1758787819.8391914
-0.3282470703125,-0.01348876953125,0.93011474609375,6.572519083969466,-18.221374045801525,2.633587786259542,1758787819.858422
-0.34259033203125,-0.01947021484375,0.92401123046875,5.770992366412214,-17.12213740458015,2.213740458015267,1758787819.877653
1.50103759765625,0.33990478515625,-6.103515625e-05,-179.793893129771,-242.2824427480916,196.4351145038168,1758787819.8968837
-1.00006103515625,0.87969970703125,0.154541015625,-119.6412213740458,-59.62595419847328,-165.45038167938932,1758787819.9161143
-0.00018310546875,-1.00006103515625,0.56317138671875,-99.09923664122137,34.97709923664122,73.04580152671755,1758787819.9353452
0.01190185546875,0.69134521484375,-0.66912841796875,73.32824427480917,158.75572519083968,-186.87022900763358,1758787819.954576
-0.43023681640625,6.103515625e-05,-0.0479736328125,-111.14503816793894,-231.1908396946565,-0.9847328244274809,1758787819.9738066
0.60540771484375,1.52471923828125,-0.00018310546875,191.6412213740458,-118.22137404580153,142.65648854961833,1758787819.9930375
-1.778076171875,-1.77117919921875,-1.60858154296875,7.473282442748092,-236.5267175572519,3.6030534351145036,1758787820.0122683
0.671875,0.70733642578125,-1.2847900390625,13.16793893129771,104.45801526717557,102.91603053435115,1758787820.0314991
1.3961181640625,0.27655029296875,-1.02520751953125,1.4885496183206106,250.12977099236642,-237.83969465648855,1758787820.0507298
-0.03741455078125,0.76556396484375,-1.1068115234375,-43.30534351145038,-192.32824427480915,-250.13740458015266,1758787820.0699606
0.34112548828125,0.02593994140625,1.765625,-52.56488549618321,161.0,150.17557251908397,1758787820.0891914
1.56353759765625,-0.93597412109375,-0.015625,86.46564885496183,-195.12977099236642,-32.14503816793893,1758787820.108422
-6.103515625e-05,0.87945556640625,-0.0322265625,146.55725190839695,207.9236641221374,-165.81679389312978,1758787820.127653
-0.388671875,-0.02838134765625,0.93524169921875,2.7557251908396947,-13.664122137404581,1.7099236641221374,1758787820.0604568
-0.38946533203125,-0.0323486328125,0.92218017578125,2.381679389312977,-13.251908396946565,1.5038167938931297,1758787820.0796876
-0.39874267578125,-0.03814697265625,0.911376953125,2.9236641221374047,-12.65648854961832,1.16793893129771,1758787820.0989182
-1.23114013671875,-0.00372314453125,-1.71881103515625,-207.57251908396947,182.91603053435114,-208.50381679389312,1758787820.118149
0.1318359375,1.5318603515625,0.602294921875,178.75572519083968,-192.73282442748092,-184.42748091603053,1758787820.13738
-0.70257568359375,0.34033203125,1.46282958984375,-208.6412213740458,36.88549618320611,-115.22137404580153,1758787820.1566105
0.352294921875,1.42938232421875,-1.53814697265625,-163.17557251908397,103.6412213740458,-104.16793893129771,1758787820.1758413
0.0118408203125,-0.8564453125,-1.48699951171875,106.23664122137404,-123.93129770992367,19.763358778625953,1758787820.1950722
-1.79168701171875,1.9583740234375,-0.96319580078125,220.06870229007635,18.984732824427482,-106.18320610687023,1758787820.2143028
-1.44891357421875,0.52130126953125,-0.74090576171875,19.82442748091603,-222.76335877862596,-248.74809160305344,1758787820.2335336
0.09930419921875,-1.4903564453125,0.15240478515625,-150.06870229007635,185.32824427480915,29.3206106870229,1758787820.2527645
-0.4095458984375,1.46307373046875,-1.66851806640625,86.9618320610687,-156.25954198473283,-237.32824427480915,1758787820.2719953
1.43011474609375,-1.52545166015625,-0.84765625,218.93893129770993,-145.0229007633588,183.0,1758787820.291226
-1.66729736328125,0.7451171875,-1.6556396484375,75.35114503816794,178.93893129770993,-190.12213740458014,1758787820.3104568
-0.755859375,1.10992431640625,-0.5792236328125,2.3740458015267176,-50.32824427480916,-3.969465648854962,1758787820.3296876
0.90380859375,0.0321044921875,-0.09710693359375,0.7557251908396947,-51.343511450381676,-3.0610687022900764,1758787820.3489182
0.905029296875,0.03436279296875,-0.09710693359375,0.5343511450381679,-52.48091603053435,-4.748091603053435,1758787820.368149
-0.45458984375,-0.04168701171875,0.8748779296875,2.7786259541984735,-5.99236641221374,0.46564885496183206,1758787820.3151038
-0.4564208984375,-0.0419921875,0.8873291015625,1.748091603053435,-4.656488549618321,1.2900763358778626,1758787820.3343346
-0.451904296875,-0.03973388671875,0.86846923828125,1.282442748091603,-3.4122137404580153,1.7786259541984732,1758787820.3535652
-1.10614013671875,-0.34735107421875,-0.84375,167.6946564885496,183.38167938931298,-207.70229007633588,1758787820.372796
0.873046875,0.6724853515625,-1.89678955078125,180.3969465648855,-182.01526717557252,-10.381679389312977,1758787820.392027
0.04742431640625,1.09088134765625,1.46673583984375,-207.96946564885496,101.37404580152672,209.17557251908397,1758787820.4112575
-1.14678955078125,1.44342041015625,-1.45989990234375,-18.931297709923665,103.6412213740458,5.32824427480916,1758787820.4304883
0.0142822265625,-0.73785400390625,-0.47235107421875,160.95419847328245,-155.19847328244273,19.885496183206108,1758787820.4497192
-1.5716552734375,1.5863037109375,-0.119384765625,126.29770992366412,19.404580152671755,-92.52671755725191,1758787820.4689498
-0.58465576171875,-0.10369873046875,-0.740966796875,19.81679389312977,-197.17557251908397,164.93129770992365,1758787820.4881806
0.583740234375,0.00982666015625,0.15435791015625,-134.4351145038168,-162.36641221374046,191.51908396946564,1758787820.5074115
-0.6591796875,1.46533203125,-1.67803955078125,55.083969465648856,-189.48091603053436,-112.16793893129771,1758787820.5266423
1.4404296875,-1.49786376953125,-0.72265625,111.45801526717557,-144.9770992366412,183.0763358778626,1758787820.545873
-1.68548583984375,0.2939453125,0.5631103515625,12.900763358778626,179.8091603053435,-189.22137404580153,1758787820.5651038
-0.9736328125,1.10992431640625,-0.5789794921875,2.3740458015267176,-56.30534351145038,-5.793893129770993,1758787820.5843346
0.88385009765625,0.013916015625,-0.018310546875,1.8396946564885497,-56.12977099236641,-4.916030534351145,1758787820.6035652
0.9033203125,0.0147705078125,-0.01220703125,1.4732824427480915,-56.61832061068702,-5.206106870229007,1758787820.622796
-0.4700927734375,-0.0262451171875,0.9013671875,0.8854961832061069,-0.48854961832061067,-0.09923664122137404,1758787820.5512
-0.4744873046875,-0.0240478515625,0.89990234375,-0.4198473282442748,0.20610687022900764,-0.11450381679389313,1758787820.5704308
-0.480712890625,-0.03204345703125,0.89068603515625,-0.5419847328244275,0.5343511450381679,0.46564885496183206,1758787820.5896616
-0.93426513671875,0.88018798828125,-0.73431396484375,167.66412213740458,182.44274809160305,-212.18320610687022,1758787820.6088922
0.1083984375,1.2506103515625,1.35272216796875,178.4198473282443,-193.29770992366412,-191.87786259541986,1758787820.628123
-1.18695068359375,0.090576171875,1.45892333984375,-211.95419847328245,14.900763358778626,179.86259541984734,1758787820.647354
-0.64727783203125,1.42681884765625,-1.54364013671875,-190.29007633587787,138.81679389312978,-117.3206106870229,1758787820.6665845
0.009521484375,-0.48345947265625,-0.02838134765625,110.72519083969466,0.35877862595419846,1.0687022900763359,1758787820.6858153
0.00677490234375,-0.4974365234375,-0.041015625,109.36641221374046,0.5572519083969466,2.236641221374046,1758787820.7050462
0.01019287109375,-0.5008544921875,-0.0369873046875,111.74809160305344,-0.1297709923664122,3.5114503816793894,1758787820.7242768
0.00811767578125,-1.74896240234375,-0.59228515625,-82.08396946564885,168.41221374045801,-62.961832061068705,1758787820.7435076
-0.85418701171875,-1.0,-1.86749267578125,-136.9236641221374,64.5114503816794,-207.03053435114504,1758787820.7627385
-1.5367431640625,0.78814697265625,1.94842529296875,-175.09923664122138,174.9618320610687,35.045801526717554,1758787820.7819693
1.58697509765625,0.02618408203125,-6.103515625e-05,-201.16030534351145,-4.0,216.9083969465649,1758787820.8012
0.1866455078125,-0.02191162109375,-1.19696044921875,-99.06870229007633,-50.3587786259542,104.74809160305344,1758787820.8204308
1.0166015625,-1.49725341796875,-1.98309326171875,33.56488549618321,-214.8320610687023,-160.73282442748092,1758787820.8396616
-0.01556396484375,-0.88677978515625,-0.21533203125,245.19847328244273,-131.09923664122138,174.54198473282443,1758787820.8588922
-1.218505859375,-0.00030517578125,-1.41802978515625,-236.29007633587787,-0.022900763358778626,-186.5114503816794,1758787820.878123
-0.45770263671875,-0.03826904296875,0.9051513671875,-0.5648854961832062,9.259541984732824,0.7251908396946565,1758787820.8449275
-0.45098876953125,-0.032470703125,0.90606689453125,-1.3435114503816794,9.587786259541986,0.4122137404580153,1758787820.8641582
-0.44598388671875,-0.0379638671875,0.8934326171875,-1.83206106870229,10.045801526717558,0.48091603053435117,1758787820.883389
-0.07379150390625,1.80865478515625,-1.234375,-54.93893129770992,-9.793893129770993,0.42748091603053434,1758787820.9026198
1.48431396484375,0.79718017578125,-1.71875,72.08396946564885,-236.4732824427481,90.32824427480917,1758787820.9218504
-1.73443603515625,0.54718017578125,-1.203125,183.4732824427481,-164.1679389312977,2.3893129770992365,1758787820.9410813
0.07806396484375,0.4534912109375,0.828125,140.29770992366412,0.8778625954198473,-93.83206106870229,1758787820.9603121
-1.58758544921875,-0.91619873046875,-0.74090576171875,19.66412213740458,-197.68702290076337,-91.43511450381679,1758787820.9795427
-0.26007080078125,-0.74017333984375,0.15228271484375,-93.36641221374046,-187.8091603053435,-106.77099236641222,1758787820.9987736
1.50909423828125,0.15728759765625,-1.57275390625,-67.37404580152672,108.17557251908397,220.10687022900763,1758787821.0180044
0.15252685546875,-0.80926513671875,0.8485107421875,-240.3587786259542,73.89312977099236,183.00763358778627,1758787821.0372353
-1.656494140625,0.3525390625,-0.8587646484375,-205.9618320610687,179.59541984732823,-182.93129770992365,1758787821.0564659
-0.9013671875,-0.53070068359375,1.0908203125,183.06870229007635,-206.86259541984734,56.916030534351144,1758787821.0756967
1.0787353515625,-1.396728515625,1.43646240234375,-182.45038167938932,-103.20610687022901,33.29007633587786,1758787821.0949275
-0.943359375,-6.103515625e-05,0.922607421875,-74.92366412213741,136.793893129771,-36.465648854961835,1758787821.1141582
0.144287109375,-0.0511474609375,-0.34490966796875,125.06106870229007,139.76335877862596,-4.709923664122138,1758787821.133389
-0.412109375,-0.0252685546875,0.9208984375,-2.7786259541984735,15.793893129770993,1.6488549618320612,1758787820.9600446
-0.40557861328125,-0.02783203125,0.91644287109375,-2.5572519083969465,16.0,1.4961832061068703,1758787820.9792755
-0.404052734375,-0.0145263671875,0.9066162109375,-1.6106870229007633,16.770992366412212,1.282442748091603,1758787820.998506
-0.74676513671875,0.267333984375,-1.46868896484375,11.358778625954198,183.2824427480916,-205.61068702290078,1758787821.017737
0.994140625,1.1412353515625,-0.146728515625,179.8320610687023,-179.99236641221373,-28.702290076335878,1758787821.0369678
-1.89007568359375,-0.4091796875,1.46551513671875,-205.66412213740458,135.93893129770993,103.64885496183206,1758787821.0561984
-0.646728515625,1.4378662109375,-1.435302734375,-13.679389312977099,33.29007633587786,-76.8854961832061,1758787821.0754292
-0.007080078125,-1.00006103515625,1.16278076171875,-3.8625954198473282,-187.63358778625954,-56.221374045801525,1758787821.09466
-0.23577880859375,-0.00433349609375,-0.17010498046875,-236.16030534351145,-4.801526717557252,140.6946564885496,1758787821.1138906
-1.82427978515625,-1.59234619140625,-0.00018310546875,-169.8854961832061,186.0229007633588,-1.9465648854961832,1758787821.1331215
-1.82037353515625,0.1275634765625,-0.0001220703125,119.31297709923665,-73.47328244274809,-97.77099236641222,1758787821.1523523
-0.00030517578125,-1.07427978515625,-1.68414306640625,-0.022900763358778626,228.44274809160305,-79.09160305343511,1758787821.1715832
1.83770751953125,0.2799072265625,1.1822509765625,2.9770992366412212,143.5648854961832,175.85496183206106,1758787821.1908138
1.84423828125,1.52685546875,0.49847412109375,-10.305343511450381,-23.900763358778626,125.06106870229007,1758787821.2100446
1.37530517578125,-0.0390625,-1.76568603515625,181.24427480916032,-155.66412213740458,-0.022900763358778626,1758787821.2292755
-1.32708740234375,-1.8961181640625,1.53131103515625,-22.282442748091604,54.41984732824427,-81.45038167938931,1758787821.248506
1.0,0.395263671875,-0.84490966796875,-88.7175572519084,-125.74045801526718,-198.78625954198472,1758787821.267737
-0.28759765625,-0.00927734375,0.975341796875,-0.9541984732824428,25.702290076335878,2.5419847328244276,1758787821.3197887
-0.27197265625,-0.009033203125,0.974609375,-0.24427480916030533,25.610687022900763,2.9770992366412212,1758787821.3390195
-0.2615966796875,-0.0208740234375,0.9764404296875,-0.061068702290076333,24.9618320610687,3.2061068702290076,1758787821.3582501
-0.59051513671875,-0.00372314453125,1.18743896484375,-51.229007633587784,181.9618320610687,-214.75572519083968,1758787821.377481
-0.2978515625,-0.49945068359375,0.1024169921875,178.06870229007635,-196.4885496183206,-249.40458015267177,1758787821.3967118
-1.31195068359375,0.84039306640625,1.455078125,-214.6793893129771,-44.458015267175576,-222.70992366412213,1758787821.4159424
0.35247802734375,1.42425537109375,-1.56854248046875,249.40458015267177,103.6412213740458,-80.40458015267176,1758787821.4351733
0.01177978515625,-0.846435546875,0.54620361328125,151.18320610687022,-61.41984732824427,19.33587786259542,1758787821.454404
-1.74481201171875,0.7933349609375,-0.58819580078125,220.05343511450383,18.557251908396946,-105.16793893129771,1758787821.4736347
0.60186767578125,1.88067626953125,-0.4910888671875,19.31297709923664,-216.3587786259542,123.89312977099236,1758787821.4928656
0.36492919921875,-0.490478515625,0.14825439453125,-69.94656488549619,183.45801526717557,-207.13740458015266,1758787821.5120964
0.8404541015625,1.455810546875,-1.70855712890625,-58.13740458015267,123.18320610687023,12.83969465648855,1758787821.5313272
1.4263916015625,-1.55596923828125,1.984375,74.32824427480917,198.9236641221374,182.12977099236642,1758787821.5505579
-1.70745849609375,-0.455078125,0.26617431640625,169.18320610687022,178.45801526717557,-194.45038167938932,1758787821.5697887
1.982421875,1.10992431640625,-0.812255859375,2.068702290076336,-32.0763358778626,-3.33587786259542,1758787821.5890195
0.97998046875,-0.002197265625,0.19537353515625,3.450381679389313,-30.49618320610687,-4.022900763358779,1758787821.6082501
0.988525390625,-0.003173828125,0.1966552734375,3.312977099236641,-29.03053435114504,-2.7786259541984735,1758787821.627481
-0.1131591796875,-0.01470947265625,0.997802734375,-2.0229007633587788,20.931297709923665,3.4656488549618323,1758787821.5950847
-0.10626220703125,-0.0177001953125,1.01373291015625,-1.5801526717557253,20.6793893129771,4.022900763358779,1758787821.6143153
-0.09869384765625,-0.0133056640625,1.00982666015625,-0.22137404580152673,21.045801526717558,3.816793893129771,1758787821.633546
-0.74896240234375,0.98065185546875,-1.90631103515625,-154.1145038167939,118.93893129770993,-206.24427480916032,1758787821.652777
-0.94305419921875,-1.06549072265625,1.7181396484375,-54.587786259541986,-233.12977099236642,-150.51908396946564,1758787821.6720076
-0.70916748046875,0.99993896484375,0.706787109375,-3.786259541984733,35.16793893129771,66.08396946564885,1758787821.6912384
0.0142822265625,-0.03375244140625,1.9803466796875,-229.98473282442748,-54.80152671755725,-49.83969465648855,1758787821.7104692
0.174560546875,-0.0001220703125,-0.05755615234375,53.20610687022901,-4.267175572519084,162.1908396946565,1758787821.7296999
-0.13677978515625,0.442138671875,-0.0001220703125,-89.76335877862596,33.66412213740458,-1.9465648854961832,1758787821.7489307
-1.67193603515625,1.4276123046875,-0.0001220703125,-0.6717557251908397,-193.7709923664122,-3.687022900763359,1758787821.7681615
-6.103515625e-05,1.46478271484375,-0.7181396484375,-0.05343511450381679,-11.51908396946565,210.55725190839695,1758787821.7873924
-0.029541015625,0.28118896484375,-1.64337158203125,2.0839694656488548,-8.595419847328245,213.87022900763358,1758787821.806623
-0.025634765625,0.73431396484375,1.42572021484375,65.19083969465649,-0.7480916030534351,-125.07633587786259,1758787821.8258538
-0.3360595703125,-1.28338623046875,1.5936279296875,-150.0229007633588,64.20610687022901,-0.015267175572519083,1758787821.8450847
-0.68646240234375,0.27850341796875,-1.43743896484375,-237.3740458015267,157.7709923664122,-69.81679389312977,1758787821.8643153
1.08441162109375,1.42578125,-1.84271240234375,81.77099236641222,192.42748091603053,-61.847328244274806,1758787821.883546
-0.01568603515625,-0.00341796875,1.0074462890625,-1.7938931297709924,19.267175572519083,1.183206106870229,1758787821.6733832
-0.00201416015625,-0.00048828125,1.01446533203125,-0.648854961832061,18.931297709923665,0.48091603053435117,1758787821.6926138
0.00921630859375,0.01025390625,1.0318603515625,-0.4732824427480916,18.51145038167939,0.9312977099236641,1758787821.7118447
-0.62396240234375,-0.87823486328125,0.0155029296875,210.0763358778626,84.35114503816794,0.015267175572519083,1758787821.7310755
1.244384765625,0.14837646484375,1.4678955078125,-1.0076335877862594,127.50381679389314,-135.26717557251908,1758787821.7503061
-0.00018310546875,-1.17681884765625,-1.59765625,230.6412213740458,35.13740458015267,83.73282442748092,1758787821.769537
0.009521484375,1.05963134765625,0.4107666015625,137.1679389312977,0.5877862595419847,-220.82442748091603,1758787821.7887678
-0.31201171875,6.103515625e-05,1.620361328125,-203.87022900763358,-192.0229007633588,-0.7251908396946565,1758787821.8079984
0.35150146484375,0.3385009765625,-0.0001220703125,153.06106870229007,-194.3969465648855,54.717557251908396,1758787821.8272293
1.689453125,0.455078125,1.783203125,60.82442748091603,211.29770992366412,60.82442748091603,1758787821.84646
1.658203125,0.486328125,1.751953125,62.778625954198475,207.38931297709922,33.465648854961835,1758787821.8656907
-1.4241943359375,0.009521484375,-1.27337646484375,52.603053435114504,4.458015267175573,-26.17557251908397,1758787821.8849216
1.671875,-0.21435546875,0.03839111328125,159.66412213740458,75.10687022900764,96.68702290076335,1758787821.9041524
1.5211181640625,-0.72906494140625,0.19195556640625,133.38931297709922,-72.17557251908397,-193.70229007633588,1758787821.9233832
-0.21875,-0.95623779296875,-1.93878173828125,0.015267175572519083,-219.3206106870229,236.64885496183206,1758787821.9426138
1.843994140625,0.000244140625,0.1796875,-144.31297709923663,0.007633587786259542,3.2442748091603053,1758787821.9618447
-0.60992431640625,-0.15576171875,0.265869140625,120.8854961832061,1.1984732824427482,125.06870229007633,1758787821.9810755
-1.08392333984375,0.0345458984375,-0.34375,217.93129770992365,-33.274809160305345,30.72519083969466,1758787822.0003061
-0.66424560546875,0.37091064453125,0.651123046875,-247.5801526717557,249.18320610687022,14.725190839694656,1758787822.019537
0.06719970703125,0.013671875,0.9998779296875,-3.564885496183206,9.374045801526718,0.40458015267175573,1758787821.9851575
0.0740966796875,0.02081298828125,0.9959716796875,-2.5572519083969465,9.282442748091603,0.32061068702290074,1758787822.004388
0.07318115234375,0.00299072265625,1.000732421875,-2.3893129770992365,9.007633587786259,0.3969465648854962,1758787822.023619
-0.37396240234375,0.35296630859375,0.43743896484375,219.84732824427482,46.48854961832061,0.015267175572519083,1758787822.0428498
-1.998291015625,-0.62542724609375,1.090087890625,56.67175572519084,-213.00763358778627,-193.4198473282443,1758787822.0620804
0.02203369140625,1.00164794921875,1.39520263671875,-183.64885496183206,33.25190839694657,76.0381679389313,1758787822.0813112
0.01190185546875,1.00164794921875,1.1649169921875,4.244274809160306,56.67175572519084,235.48091603053436,1758787822.100542
-0.61572265625,1.85064697265625,-1.0,44.541984732824424,143.94656488549617,-123.73282442748092,1758787822.1197727
-1.1209716796875,0.04833984375,0.3438720703125,-42.86259541984733,-118.45038167938931,0.0,1758787822.1390035
-0.39453125,0.70465087890625,0.0001220703125,-103.45801526717557,-77.3969465648855,214.55725190839695,1758787822.1582344
-0.74591064453125,1.06201171875,1.92523193359375,-0.022900763358778626,167.27480916030535,-13.618320610687023,1758787822.1774652
1.09173583984375,0.277587890625,-1.01690673828125,1.4885496183206106,125.06870229007633,-230.45038167938932,1758787822.1966958
-0.46539306640625,0.640869140625,-1.22259521484375,46.47328244274809,0.015267175572519083,24.702290076335878,1758787822.2159266
-0.381103515625,-1.78472900390625,-1.41644287109375,9.84732824427481,28.290076335877863,121.20610687022901,1758787822.2351575
-0.31146240234375,-0.3436279296875,0.0,138.25954198473283,49.908396946564885,0.015267175572519083,1758787822.254388
0.01263427734375,-0.8741455078125,-0.535888671875,39.11450381679389,-199.32824427480915,-225.04580152671755,1758787822.273619
0.024658203125,0.0308837890625,1.01776123046875,1.1297709923664123,-11.49618320610687,1.381679389312977,1758787822.5799477
0.01934814453125,0.0260009765625,1.01446533203125,1.633587786259542,-11.679389312977099,1.3511450381679388,1758787822.5991786
0.0147705078125,0.02264404296875,1.012939453125,2.66412213740458,-12.183206106870228,1.2442748091603053,1758787822.6184092
0.05010986328125,-1.56182861328125,1.171875,42.7557251908397,183.4732824427481,-217.793893129771,1758787822.63764
-0.4189453125,1.04742431640625,-0.89569091796875,180.29770992366412,-196.89312977099237,-239.26717557251908,1758787822.6568708
-0.95257568359375,0.34173583984375,1.46539306640625,-218.6030534351145,-62.045801526717554,-177.76335877862596,1758787822.6761014
-1.6458740234375,1.43878173828125,-1.5863037109375,243.54198473282443,103.6412213740458,82.10687022900764,1758787822.6953323
0.009521484375,-0.52642822265625,-1.19598388671875,-59.87022900763359,-186.5114503816794,19.27480916030534,1758787822.7145631
-1.3719482421875,-0.2955322265625,-0.96319580078125,-186.4351145038168,18.480916030534353,-68.0,1758787822.7337937
-1.48602294921875,-1.83807373046875,-1.74127197265625,19.251908396946565,-175.75572519083968,-98.1526717557252,1758787822.7530246
0.20867919921875,0.00933837890625,0.1473388671875,10.17557251908397,186.0229007633588,101.62595419847328,1758787822.7722554
-1.408447265625,1.462158203125,-1.76202392578125,-77.19083969465649,-3.8396946564885495,-49.56488549618321,1758787822.7914863
1.43280029296875,-1.61737060546875,1.6376953125,66.5114503816794,-19.82442748091603,182.78625954198472,1758787822.8107169
-1.76611328125,-0.6318359375,1.75054931640625,-49.58015267175573,179.0229007633588,-203.36641221374046,1758787822.8299477
1.5625,0.26617431640625,-0.5146484375,-0.5954198473282443,-125.06870229007633,-110.05343511450381,1758787822.8491786
-0.02978515625,-0.90631103515625,-1.4296875,-138.70992366412213,-0.08396946564885496,-120.7175572519084,1758787822.8684092
-1.89703369140625,-0.09710693359375,-0.98443603515625,35.221374045801525,76.16030534351145,-0.015267175572519083,1758787822.88764
-0.0517578125,0.0169677734375,0.9945068359375,3.213740458015267,-12.938931297709924,-0.13740458015267176,1758787822.8048387
-0.0572509765625,0.0185546875,1.00018310546875,2.549618320610687,-12.732824427480915,-0.183206106870229,1758787822.8240695
-0.06683349609375,0.0220947265625,1.0013427734375,2.6259541984732824,-12.709923664122137,-0.09923664122137404,1758787822.8433
0.17510986328125,-0.96014404296875,1.703125,-113.70229007633588,182.36641221374046,-221.76335877862596,1758787822.862531
-0.4013671875,-0.49945068359375,1.1024169921875,178.06106870229007,-207.35114503816794,181.61832061068702,1758787822.8817618
1.43804931640625,-1.15911865234375,1.45806884765625,-221.6946564885496,-44.458015267175576,-113.27480916030534,1758787822.9009924
-1.6475830078125,1.42352294921875,-1.65887451171875,185.0381679389313,103.6412213740458,-105.43511450381679,1758787822.9202232
0.0118408203125,-0.73114013671875,1.23175048828125,-186.89312977099237,-61.45038167938932,19.389312977099237,1758787822.939454
-1.772705078125,0.3822021484375,-0.79132080078125,-30.129770992366414,18.31297709923664,-91.94656488549619,1758787822.9586847
1.16436767578125,1.95880126953125,-1.7413330078125,19.38167938931298,-222.1679389312977,40.961832061068705,1758787822.9779155
-1.07257080078125,-1.49090576171875,0.146484375,25.80916030534351,185.3206106870229,-156.32824427480915,1758787822.9971464
1.3408203125,1.45733642578125,-1.775634765625,-43.847328244274806,35.2442748091603,-174.793893129771,1758787823.0163772
1.4229736328125,-1.660400390625,1.5205078125,-189.4885496183206,136.42748091603053,182.25954198473283,1758787823.0356078
-1.775634765625,-0.3466796875,0.45367431640625,-18.458015267175572,177.95419847328245,-207.78625954198472,1758787823.0548387
1.5283203125,0.26617431640625,1.798828125,-0.2900763358778626,93.35114503816794,-76.55725190839695,1758787823.0740695
-0.031494140625,-6.103515625e-05,-1.41802978515625,-176.93129770992365,-0.08396946564885496,-164.70229007633588,1758787823.0933
1.61016845703125,-0.09698486328125,0.01556396484375,-140.70229007633588,66.50381679389314,-0.015267175572519083,1758787823.112531
-0.17529296875,-0.01849365234375,0.99700927734375,2.1068702290076335,-10.427480916030534,-0.6106870229007634,1758787823.176185
-0.179443359375,-0.0103759765625,0.99298095703125,1.9618320610687023,-10.106870229007633,-0.8244274809160306,1758787823.1954157
-0.1845703125,-0.01507568359375,0.99737548828125,1.6717557251908397,-9.938931297709924,-0.6030534351145038,1758787823.2146466
0.37823486328125,0.61468505859375,0.859375,105.17557251908397,182.793893129771,-218.67175572519085,1758787823.2338772
0.6669921875,1.6724853515625,-1.647216796875,178.75572519083968,-201.3740458015267,-135.93893129770993,1758787823.253108
1.95367431640625,1.3409423828125,1.4617919921875,-218.35114503816794,87.20610687022901,183.7709923664122,1758787823.2723389
0.60284423828125,1.4298095703125,-1.60699462890625,-130.19847328244273,103.6412213740458,123.30534351145039,1758787823.2915695
0.0142822265625,-0.70562744140625,-1.76434326171875,235.21374045801528,-249.0381679389313,19.893129770992367,1758787823.3108003
-1.65570068359375,-1.8414306640625,0.98992919921875,-186.4351145038168,19.045801526717558,-88.23664122137404,1758787823.3300312
-1.75360107421875,1.94317626953125,1.0087890625,19.885496183206108,-206.2824427480916,-219.9236641221374,1758787823.3492618
0.83367919921875,-1.24066162109375,0.1522216796875,109.56488549618321,200.45801526717557,189.54961832061068,1758787823.3684926
1.44573974609375,-0.29937744140625,0.62896728515625,110.85496183206106,-206.06870229007635,-184.25190839694656,1758787823.3877234
-0.00140380859375,-0.51177978515625,-0.20172119140625,-0.022900763358778626,-64.0,-45.725190839694655,1758787823.4069543
1.22100830078125,0.27813720703125,0.90972900390625,2.0839694656488548,-250.13740458015266,-17.778625954198475,1758787823.426185
-1.0950927734375,0.83050537109375,-1.2607421875,-168.0229007633588,-162.3740458015267,118.09160305343511,1758787823.4454157
0.37591552734375,-0.03143310546875,0.17181396484375,225.68702290076337,121.22900763358778,-25.786259541984734,1758787823.4646466
0.90728759765625,0.2747802734375,1.26568603515625,217.51908396946564,-8.251908396946565,-0.022900763358778626,1758787823.4838772
1.0,-0.9146728515625,-0.0360107421875,1.9465648854961832,241.34351145038167,4.694656488549619,1758787823.503108
-0.274658203125,-0.0380859375,0.962646484375,1.6412213740458015,-4.244274809160306,-2.1374045801526718,1758787823.7053087
-0.28106689453125,-0.03424072265625,0.970703125,1.748091603053435,-4.068702290076335,-2.213740458015267,1758787823.7245395
-0.27886962890625,-0.027587890625,0.96728515625,1.213740458015267,-3.0610687022900764,-1.9618320610687023,1758787823.7437701
0.61260986328125,1.2181396484375,-1.296875,136.33587786259542,181.93129770992365,-221.75572519083968,1758787823.763001
0.51953125,-1.9212646484375,1.351318359375,177.27480916030535,-209.75572519083968,-219.96946564885496,1758787823.7822318
1.57867431640625,-0.90985107421875,1.454833984375,-221.74809160305344,69.74045801526718,-91.77099236641222,1758787823.8014624
-0.39862060546875,1.41766357421875,-1.675537109375,-214.59541984732823,103.6412213740458,-5.557251908396947,1758787823.8206933
0.0166015625,-0.9046630859375,0.50811767578125,-171.25954198473283,32.35114503816794,19.83969465648855,1758787823.839924
1.98394775390625,-0.9801025390625,-0.0413818359375,220.0,18.72519083969466,-112.25954198473282,1758787823.8591547
0.58038330078125,-1.16619873046875,1.2586669921875,19.84732824427481,249.93893129770993,-106.21374045801527,1758787823.8783855
0.7398681640625,-1.24090576171875,0.14990234375,88.48091603053435,-195.09923664122138,-21.49618320610687,1758787823.8976164
0.70196533203125,0.4061279296875,1.0037841796875,-35.17557251908397,170.0,-50.81679389312977,1758787823.9168472
0.95196533203125,0.6561279296875,0.42559814453125,103.57251908396947,-109.44274809160305,31.259541984732824,1758787823.9360778
-1.17303466796875,1.03106689453125,1.55059814453125,-240.36641221374046,-109.44274809160305,105.51908396946565,1758787823.9553087
-0.34124755859375,0.026123046875,-0.8941650390625,82.8473282442748,-48.14503816793893,32.35114503816794,1758787823.9745395
0.1588134765625,-1.99139404296875,-0.7242431640625,233.23664122137404,-186.46564885496184,18.778625954198475,1758787823.9937701
-0.89288330078125,0.73663330078125,0.53692626953125,-92.70992366412214,19.87786259541985,-248.32824427480915,1758787824.013001
-0.278564453125,-0.0386962890625,0.9454345703125,0.32061068702290074,5.977099236641221,-0.16030534351145037,1758787823.9604337
-0.28240966796875,-0.03338623046875,0.95098876953125,0.916030534351145,7.091603053435114,-0.8549618320610687,1758787823.9796646
-0.2763671875,-0.03399658203125,0.9512939453125,0.5038167938931297,8.65648854961832,-1.633587786259542,1758787823.9988952
0.73760986328125,0.2691650390625,0.15631103515625,-113.74045801526718,182.18320610687022,-218.54961832061068,1758787824.018126
0.69921875,0.6256103515625,-1.647705078125,178.08396946564886,-203.6259541984733,-141.06870229007635,1758787824.0373569
-1.51507568359375,1.840576171875,1.45672607421875,-218.63358778625954,78.16793893129771,-242.24427480916032,1758787824.0565875
-1.39764404296875,1.42437744140625,-1.6260986328125,-143.26717557251908,138.81679389312978,201.65648854961833,1758787824.0758183
0.009521484375,-0.2677001953125,-0.02734375,118.38167938931298,-0.6412213740458015,10.01526717557252,1758787824.0950491
-0.01702880859375,-0.26300048828125,-0.02813720703125,120.46564885496183,-1.0916030534351144,11.17557251908397,1758787824.1142797
-0.01361083984375,-0.2525634765625,-0.0206298828125,122.19847328244275,-1.2595419847328244,11.633587786259541,1758787824.1335106
-0.0089111328125,0.75323486328125,0.27105712890625,78.17557251908397,136.40458015267177,182.1908396946565,1758787824.1527414
-1.74993896484375,0.564453125,-0.6712646484375,169.14503816793894,178.22137404580153,-203.29770992366412,1758787824.1719723
-1.1396484375,-0.85882568359375,0.84063720703125,182.21374045801528,-218.91603053435114,70.22900763358778,1758787824.1912029
0.1568603515625,-0.3974609375,1.4254150390625,-203.29007633587787,-143.26717557251908,103.6412213740458,1758787824.2104337
1.97174072265625,0.028564453125,-0.7730712890625,126.32824427480917,-34.465648854961835,-186.5114503816794,1758787824.2296646
0.15850830078125,-1.7283935546875,1.0706787109375,-24.709923664122137,126.22137404580153,18.99236641221374,1758787824.2488952
-0.76080322265625,1.05401611328125,-0.54119873046875,-155.24427480916032,19.83969465648855,-213.83969465648855,1758787824.268126
-0.22845458984375,0.00067138671875,0.9610595703125,-8.923664122137405,19.610687022900763,-10.236641221374045,1758787824.1852846
-0.2091064453125,0.01116943359375,0.956298828125,-9.633587786259541,24.48854961832061,-8.427480916030534,1758787824.2045155
-0.17926025390625,-0.0091552734375,0.9874267578125,-9.404580152671755,26.244274809160306,-5.717557251908397,1758787824.223746
0.86260986328125,-0.96014404296875,-1.46875,230.05343511450383,180.55725190839695,-229.06870229007635,1758787824.242977
-0.01953125,1.32867431640625,1.35009765625,175.57251908396947,-220.00763358778627,151.93893129770993,1758787824.2622077
-1.34320068359375,-1.66082763671875,1.4400634765625,-230.82442748091603,-23.450381679389313,209.1679389312977,1758787824.2814384
-1.4002685546875,1.39947509765625,-1.77593994140625,116.76335877862596,103.6412213740458,-105.09923664122137,1758787824.3006692
0.0118408203125,-1.22491455078125,-0.24676513671875,102.31297709923665,157.38167938931298,19.374045801526716,1758787824.3199
1.445068359375,1.2025146484375,1.09918212890625,32.343511450381676,17.900763358778626,-161.53435114503816,1758787824.3391306
-1.15008544921875,1.33367919921875,-1.24169921875,19.267175572519083,168.36641221374046,14.946564885496183,1758787824.3583615
0.75543212890625,1.508544921875,0.141845703125,111.79389312977099,-238.7709923664122,-23.442748091603054,1758787824.3775923
1.83831787109375,1.42877197265625,-1.88427734375,-95.02290076335878,134.9083969465649,-112.74809160305344,1758787824.3968232
1.38604736328125,-1.828125,-0.0322265625,39.14503816793893,167.33587786259542,178.06870229007635,1758787824.4160538
-1.90155029296875,-1.009765625,-0.54632568359375,-206.6259541984733,172.58778625954199,-231.19847328244273,1758787824.4352846
-0.4619140625,0.26611328125,1.33544921875,-0.2900763358778626,-125.07633587786259,-166.34351145038167,1758787824.4545155
-0.034912109375,-6.103515625e-05,1.26947021484375,-70.62595419847328,-0.022900763358778626,-0.007633587786259542,1758787824.473746
-0.52166748046875,-0.02862548828125,-6.103515625e-05,61.06106870229008,16.9618320610687,-0.015267175572519083,1758787824.492977
0.34613037109375,-0.01568603515625,0.98858642578125,1.900763358778626,0.2748091603053435,2.519083969465649,1758787825.0859547
0.28228759765625,-0.00714111328125,0.979736328125,0.9618320610687023,-4.267175572519084,1.4809160305343512,1758787825.1051855
0.30181884765625,6.103515625e-05,0.96087646484375,0.1984732824427481,-4.938931297709924,-1.2061068702290076,1758787825.124416
1.30010986328125,-0.00189208984375,0.56243896484375,-217.51908396946564,15.091603053435115,-235.25954198473283,1758787825.143647
1.39068603515625,-0.37353515625,-0.23553466796875,21.251908396946565,35.534351145038165,-169.51908396946564,1758787825.1628778
0.26666259765625,-0.98919677734375,0.12054443359375,-245.77862595419847,-70.46564885496183,-95.58015267175573,1758787825.1821084
1.76446533203125,0.169921875,0.2535400390625,159.8854961832061,103.70229007633588,-46.25954198473283,1758787825.2013392
0.0118408203125,-1.2357177734375,-1.1748046875,-111.33587786259542,65.44274809160305,45.74809160305343,1758787825.22057
-0.284423828125,-0.5126953125,-1.9368896484375,33.32824427480916,33.2442748091603,-154.70992366412213,1758787825.2398007
-1.2060546875,1.85980224609375,0.5230712890625,44.98473282442748,-35.66412213740458,-65.34351145038168,1758787825.2590315
-0.8431396484375,-1.733642578125,0.2613525390625,135.38167938931298,-195.09923664122138,150.4732824427481,1758787825.2782624
1.54803466796875,-0.07818603515625,1.519287109375,-205.1908396946565,207.13740458015266,173.93129770992365,1758787825.2974932
1.2198486328125,-0.5157470703125,0.4569091796875,160.25190839694656,211.05343511450383,-68.37404580152672,1758787825.3167238
-1.04583740234375,1.1248779296875,1.06622314453125,-187.59541984732823,-156.33587786259542,103.6030534351145,1758787825.3359547
-0.66668701171875,0.0213623046875,-1.23797607421875,-152.3053435114504,-232.49618320610688,127.92366412213741,1758787825.3551855
0.3531494140625,-0.28460693359375,-0.548828125,-234.42748091603053,-60.50381679389313,32.14503816793893,1758787825.374416
-1.23773193359375,-1.234375,0.15667724609375,190.42748091603053,43.38167938931298,-35.70992366412214,1758787825.393647
0.27923583984375,-0.05023193359375,0.99481201171875,1.4961832061068703,3.6412213740458017,3.648854961832061,1758787825.1816072
0.3109130859375,-0.0289306640625,0.96807861328125,0.8320610687022901,-0.4732824427480916,0.916030534351145,1758787825.2008379
0.30841064453125,-0.01763916015625,0.95751953125,-0.4580152671755725,-5.251908396946565,-3.6259541984732824,1758787825.2200687
-1.12396240234375,1.57672119140625,-6.103515625e-05,13.67175572519084,3.5419847328244276,134.0763358778626,1758787825.2392995
0.99993896484375,-1.24957275390625,6.103515625e-05,-1.9541984732824427,13.183206106870228,3.1755725190839694,1758787825.2585301
1.325439453125,0.99993896484375,-1.49957275390625,-7.809160305343512,35.16793893129771,56.12977099236641,1758787825.277761
0.01666259765625,0.99993896484375,-1.24957275390625,101.62595419847328,-39.32824427480916,13.17557251908397,1758787825.2969918
0.0263671875,0.563720703125,-6.103515625e-05,-187.55725190839695,0.007633587786259542,156.33587786259542,1758787825.3162224
0.112548828125,0.025390625,0.215087890625,-136.66412213740458,34.12977099236641,199.33587786259542,1758787825.3354533
0.111083984375,0.0263671875,-0.606689453125,-103.48091603053435,-156.29007633587787,-148.5114503816794,1758787825.354684
0.01068115234375,0.1015625,0.0263671875,0.0,-249.0,-125.02290076335878,1758787825.3739147
-1.37493896484375,1.29736328125,-1.181640625,2.0839694656488548,62.70229007633588,58.48091603053435,1758787825.3931456
0.5015869140625,0.44354248046875,0.50128173828125,58.25954198473283,62.63358778625954,56.94656488549618,1758787825.4123764
0.50152587890625,0.48822021484375,0.5015869140625,63.87786259541985,-134.70992366412213,35.06106870229008,1758787825.4316072
1.75006103515625,0.10546875,0.0283203125,0.0,-124.43511450381679,-156.29007633587787,1758787825.4508379
0.25006103515625,0.22760009765625,0.1015625,3.2977099236641223,-189.16030534351145,-124.83969465648855,1758787825.4700687
-0.9996337890625,6.103515625e-05,0.265625,46.38167938931298,2.381679389312977,-124.85496183206106,1758787825.4892995
-0.9996337890625,-0.37493896484375,0.422119140625,13.19083969465649,3.2977099236641223,0.0,1758787825.5085301
-0.9984130859375,-1.2496337890625,0.25006103515625,55.916030534351144,14.16793893129771,3.1755725190839694,1758787825.527761
0.23895263671875,-0.01470947265625,0.9984130859375,0.6870229007633588,-3.595419847328244,-0.5343511450381679,1758787825.4454658
0.23760986328125,-0.0306396484375,1.01220703125,0.8015267175572519,-2.6030534351145036,-3.2290076335877864,1758787825.4646966
0.2562255859375,-0.0172119140625,1.05047607421875,0.22900763358778625,-16.083969465648856,-10.458015267175572,1758787825.4839272
-0.87396240234375,-1.804931640625,1.79681396484375,14.603053435114504,3.5419847328244276,-16.061068702290076,1758787825.503158
-0.78814697265625,-1.2496337890625,-0.06243896484375,109.42748091603053,12.870229007633588,3.2977099236641223,1758787825.522389
-0.99365234375,1.91064453125,-0.99957275390625,0.007633587786259542,103.57251908396947,-83.29007633587786,1758787825.5416195
0.0213623046875,-1.25921630859375,-1.5849609375,-33.16793893129771,-123.09923664122137,30.85496183206107,1758787825.5608504
-0.29949951171875,-0.81640625,1.1568603515625,63.94656488549618,22.732824427480917,-157.5114503816794,1758787825.5800812
-1.564453125,-0.14019775390625,-1.484375,30.671755725190838,-37.42748091603053,-101.98473282442748,1758787825.5993118
0.4224853515625,1.01123046875,0.18109130859375,-107.35114503816794,185.08396946564886,127.03053435114504,1758787825.6185427
0.11676025390625,0.0263671875,1.32861328125,-125.55725190839695,-218.82442748091603,-7.809160305343512,1758787825.6377735
-1.82818603515625,0.10931396484375,0.0263671875,-0.030534351145038167,244.0,-156.2824427480916,1758787825.6570044
0.18756103515625,0.28045654296875,-0.7376708984375,2.969465648854962,122.61832061068702,-218.81679389312978,1758787825.676235
-0.12493896484375,-0.013671875,0.10931396484375,3.2977099236641223,167.206106870229,-1.2213740458015268,1758787825.6954658
-1.7496337890625,-0.06243896484375,-0.26568603515625,14.114503816793894,3.4198473282442747,-0.030534351145038167,1758787825.7146966
-0.82708740234375,-1.903564453125,0.42193603515625,14.641221374045802,3.9083969465648853,-23.72519083969466,1758787825.7339272
-6.103515625e-05,-1.2496337890625,-0.37493896484375,-1.6793893129770991,13.67175572519084,3.1755725190839694,1758787825.753158
-0.97265625,0.28521728515625,0.32769775390625,14.50381679389313,-49.12977099236641,-85.27480916030534,1758787826.3752997
-0.88568115234375,0.38055419921875,0.4351806640625,8.51908396946565,-26.35114503816794,-79.26717557251908,1758787826.3945305
-0.8154296875,0.41046142578125,0.4447021484375,2.50381679389313,-35.213740458015266,-75.57251908396947,1758787826.4137611
0.07916259765625,-0.9527587890625,-0.015625,13.67175572519084,3.5419847328244276,0.0,1758787826.432992
